Subject,Detailed_Condition,Score,Trials,Lexical.ACC,Lexical.RT_mean,Lexical.RT_sd,Penalty,Reward,TestDuration,Load_Condition,Speed_Condition,Lexical.Correct_Trials,Lexical.Correct_RT_mean,Lexical.Correct_RT_sd,Lexical.Incorrect_Trials,Lexical.Incorrect_RT_mean,Lexical.Incorrect_RT_sd,RT_sec,RewardRate,Payoff,a,v,t0
19001,Load_Accuracy_Max,820,41,1,887.975609756098,340.085686835309,80,20,60,Load,Accuracy_Max,41,887.975609756098,340.085686835309,0,NA,NA,0.887975609756098,22.523141154173636,80,1.585317,3.282851,0.534277
19001,Load_Accuracy_Mid,680,46,0.91304347826087,721.5,272.852727879182,40,20,60,Load,Accuracy_Mid,42,735.857142857143,280.163764951211,4,570.75,104.030043737374,0.7215,20.488716140890084,40,1.145382,3.914157,0.441757
19001,Load_Neutral,830,45.5,0.956280193236715,726.424637681159,244.702107790458,20,20,60,Load,Neutral,87,723.436781609195,247.22937758893,4,788.5,164.921193301528,0.726424637681159,25.12470913394238,20,1.342996,4.217119,0.47489
19001,Load_Speed_Max,845,46,0.934782608695652,704.108695652174,271.23472641163403,5,20,60,Load,Speed_Max,43,696.488372093023,264.509462617037,3,813.333333333333,408.500101999171,0.704108695652174,26.089104325542614,5,1.626254,4.199642,0.411878
19001,Load_Speed_Mid,780,42,0.952380952380952,853.119047619048,269.645856487768,10,20,60,Load,Speed_Mid,40,861.35,273.703709351592,2,688.5,50.2045814642449,0.853119047619048,21.768859367586703,10,1.245267,2.929476,0.572796
19001,NoLoad_Accuracy_Max,880,54,0.962962962962963,551.740740740741,110.950810992161,80,20,60,NoLoad,Accuracy_Max,52,553.557692307692,112.530155167498,2,504.5,44.5477272147525,0.551740740740741,29.536148217761962,80,1.111923,5.134629,0.407427
19001,NoLoad_Accuracy_Mid,860,55,0.927272727272727,552.236363636364,136.292708377603,40,20,60,NoLoad,Accuracy_Mid,51,557.56862745098,140.030318845879,4,484.25,30.1371863318393,0.552236363636364,28.31462153886671,40,1.211085,7.225208,0.415952
19001,NoLoad_Neutral,870,53.5,0.906468531468531,566.392132867133,153.87277573611,20,20,60,NoLoad,Neutral,97,559.103092783505,141.81182400574,10,628.3,277.945258399323,0.566392132867133,28.705803480069335,20,1.09123,4.754383,0.395616
19001,NoLoad_Speed_Max,1045,56,0.946428571428571,525.785714285714,112.150501848788,5,20,60,NoLoad,Speed_Max,53,529.22641509434,113.962315213514,3,465,48.5695377783236,0.525785714285714,35.49110175247928,5,0.915098,5.435746,0.409523
19001,NoLoad_Speed_Mid,930,54,0.907407407407407,568.777777777778,146.549839119366,10,20,60,NoLoad,Speed_Mid,49,579.979591836735,148.990700184597,5,459,39.8559907667593,0.568777777777778,30.27935143582727,10,0.887152,4.046769,0.407113
19002,Load_Accuracy_Max,680,39,0.974358974358974,946.410256410256,404.239423449749,80,20,60,Load,Accuracy_Max,38,949.342105263158,409.245269504321,1,835,NA,0.946410256410256,18.423191547006205,80,1.942935,2.032534,0.436825
19002,Load_Accuracy_Mid,560,37,0.918918918918919,1024.45945945946,545.951188019313,40,20,60,Load,Accuracy_Mid,34,957.147058823529,343.733611827791,3,1787.33333333333,1570.22811506269,1.02445945945946,14.773776546629726,40,2.065315,2.118881,0.397077
19002,Load_Neutral,820,42,0.98780487804878,844.647192285876,288.304769551432,20,20,60,Load,Neutral,83,840.168674698795,289.491978037772,1,1134,NA,0.844647192285876,23.101000394194383,20,2.152192,3.329726,0.445079
19002,Load_Speed_Max,890,47,0.957446808510638,713.063829787234,157.463371069249,5,20,60,Load,Speed_Max,45,705.133333333333,149.968724012103,2,891.5,290.620887067671,0.713063829787234,26.556066121620805,5,1.202322,4.628182,0.530609
19002,Load_Speed_Mid,870,45,0.977777777777778,772.644444444444,227.741495755361,10,20,60,Load,Speed_Mid,44,769.022727272727,229.059806208545,1,932,NA,0.772644444444444,25.022289970951157,10,1.618001,3.374497,0.462828
19002,NoLoad_Accuracy_Max,1020,51,1,624.921568627451,123.266839520977,80,20,60,NoLoad,Accuracy_Max,51,624.921568627451,123.266839520977,0,NA,NA,0.6249215686274511,32.00401619026701,80,1.138755,5.263502,0.478744
19002,NoLoad_Accuracy_Mid,920,49,0.979591836734694,672.204081632653,152.803247619261,40,20,60,NoLoad,Accuracy_Mid,48,660.979166666667,132.439868263577,1,1211,NA,0.672204081632653,27.931264800534347,40,1.259451,4.311058,0.506683
19002,NoLoad_Neutral,980,53,0.962264150943396,590.594339622642,124.411237649641,20,20,60,NoLoad,Neutral,102,593.343137254902,126.814395839117,4,520.5,125.712635270551,0.590594339622642,31.30840375061894,20,1.251114,4.605763,0.427532
19002,NoLoad_Speed_Max,985,53,0.943396226415094,591.811320754717,117.833823112788,5,20,60,NoLoad,Speed_Max,50,580.7,108.93796212449,3,777,125.391387264038,0.591811320754717,31.40343046610979,5,1.087645,4.878409,0.468669
19002,NoLoad_Speed_Mid,1020,51,1,615.921568627451,117.379869336655,10,20,60,NoLoad,Speed_Mid,51,615.921568627451,117.379869336655,0,NA,NA,0.6159215686274511,32.47166687889978,10,1.171888,5.231359,0.485517
19003,Load_Accuracy_Max,900,45,1,757.066666666667,129.336488558826,80,20,60,Load,Accuracy_Max,45,757.066666666667,129.336488558826,0,NA,NA,0.757066666666667,26.417752729834437,80,1.219988,5.041393,0.581211
19003,Load_Accuracy_Mid,1000,50,1,626.76,116.041435245681,40,20,60,Load,Accuracy_Mid,50,626.76,116.041435245681,0,NA,NA,0.62676,31.910141042823412,40,1.02307,5.117404,0.488714
19003,Load_Neutral,770,52.5,0.866835994194485,574.750362844703,118.934874160742,20,20,60,Load,Neutral,91,573.692307692308,111.256929103334,14,580.928571428571,176.34165452575,0.5747503628447029,25.53010962038166,20,1.085879,5.493983,0.424918
19003,Load_Speed_Max,900,55,0.854545454545454,515.018181818182,159.790081149207,5,20,60,Load,Speed_Max,47,534.468085106383,163.407180282852,8,400.75,63.5267097931481,0.515018181818182,31.77292946409655,5,0.963461,3.239996,0.316074
19003,Load_Speed_Mid,730,50,0.82,636.16,183.168970725761,10,20,60,Load,Speed_Mid,41,633.317073170732,190.551625422665,9,649.111111111111,154.010912311794,0.63616,22.95020120724346,10,0.89672,3.213767,0.450807
19003,NoLoad_Accuracy_Max,420,46,0.891304347826087,738.826086956522,136.925820038577,80,20,60,NoLoad,Accuracy_Max,41,733.560975609756,137.399790534864,5,782,139.719361578845,0.738826086956522,12.358029776966994,80,1.024628,3.630104,0.575162
19003,NoLoad_Accuracy_Mid,820,47,0.957446808510638,715.191489361702,131.525933679797,40,20,60,NoLoad,Accuracy_Mid,45,712.333333333333,125.295831752479,2,779.5,310.419876940894,0.715191489361702,24.39459748914141,40,1.186137,5.699424,0.561535
19003,NoLoad_Neutral,890,50.5,0.943396226415094,640.511988993711,123.85405362801,20,20,60,NoLoad,Neutral,95,644.294736842105,139.071149223959,6,528.666666666667,52.7509873525289,0.6405119889937111,27.690112537109595,20,1.316119,4.492748,0.471478
19003,NoLoad_Speed_Max,665,57,0.666666666666667,493.333333333333,113.497849780346,5,20,60,NoLoad,Speed_Max,38,512.657894736842,117.633713754452,19,454.684210526316,96.2670202160976,0.49333333333333296,23.648648648648685,5,0.599298,1.525892,0.383842
19003,NoLoad_Speed_Mid,910,53,0.905660377358491,578.490566037736,125.975977966728,10,20,60,NoLoad,Speed_Mid,48,583.770833333333,125.137922136887,5,527.8,136.980655568588,0.578490566037736,29.680365296803675,10,1.162452,5.38332,0.419776
19005,Load_Accuracy_Max,800,45,0.977777777777778,754.111111111111,218.799536959605,80,20,60,Load,Accuracy_Max,44,759.75,217.996386251251,1,506,NA,0.754111111111111,23.57448062472377,80,1.683732,3.667852,0.451679
19005,Load_Accuracy_Mid,900,45,1,761.066666666667,354.139828573147,40,20,60,Load,Accuracy_Mid,45,761.066666666667,354.139828573147,0,NA,NA,0.761066666666667,26.278906797477212,40,2.031536,4.628366,0.42918
19005,Load_Neutral,840,46,0.956521739130435,740.608695652174,216.742366959827,20,20,60,Load,Neutral,88,736.897727272727,213.418860716943,4,822.25,318.855636090483,0.740608695652174,24.656569214512167,20,1.527869,3.70039,0.493442
19005,Load_Speed_Max,830,54,0.814814814814815,549.425925925926,190.001251421087,5,20,60,Load,Speed_Max,44,574.75,198.860021471222,10,438,81.9905143565062,0.549425925925926,27.97532778320807,5,1.154885,2.550626,0.284686
19005,Load_Speed_Mid,790,53,0.830188679245283,570.490566037736,171.26706794692,10,20,60,Load,Speed_Mid,44,597.113636363636,173.241089694571,9,440.333333333333,79.9171445936352,0.5704905660377361,26.12779468183621,10,1.123893,4.064584,0.359609
19005,NoLoad_Accuracy_Max,700,50,0.94,648.82,240.967157555564,80,20,60,NoLoad,Accuracy_Max,47,654.68085106383,247.118621963216,3,557,67.7347768875044,0.6488200000000001,21.577633241885255,80,1.344072,4.093305,0.408238
19005,NoLoad_Accuracy_Mid,1020,51,1,625.705882352941,158.329693250211,40,20,60,NoLoad,Accuracy_Mid,51,625.705882352941,158.329693250211,0,NA,NA,0.625705882352941,31.96389959575069,40,1.496945,3.585505,0.395187
19005,NoLoad_Neutral,960,51,0.971153846153846,630.716923076923,158.568132258579,20,20,60,NoLoad,Neutral,99,630.737373737374,158.423585253146,3,618.666666666667,227.939319410525,0.630716923076923,29.880526677822058,20,1.485455,4.951885,0.446299
19005,NoLoad_Speed_Max,845,56,0.803571428571429,519.982142857143,120.636115664412,5,20,60,NoLoad,Speed_Max,45,539.022222222222,119.10031846551,11,442.090909090909,96.5571898363395,0.519982142857143,29.01885366942548,5,1.075634,3.61478,0.327941
19005,NoLoad_Speed_Mid,700,56,0.75,521.928571428571,153.884827906263,10,20,60,NoLoad,Speed_Mid,42,532.880952380952,154.128106738764,14,489.071428571429,153.998733404239,0.521928571428571,23.949637334063247,10,0.720418,3.066251,0.357307
19006,Load_Accuracy_Max,620,36,0.972222222222222,1095.52777777778,358.107923565836,80,20,60,Load,Accuracy_Max,35,1098.91428571429,362.750714227097,1,977,NA,1.09552777777778,15.720479728187781,80,2.82642,2.371893,0.316509
19006,Load_Accuracy_Mid,780,42,0.976190476190476,843,293.657341379952,40,20,60,Load,Accuracy_Mid,41,845.634146341463,296.802607476548,1,735,NA,0.843,22.030164378918816,40,2.30193,3.238562,0.338772
19006,Load_Neutral,750,39.5,0.973978919631094,981.079051383399,409.399025029021,20,20,60,Load,Neutral,77,914.285714285714,454.803597204414,2,1911,69.2964645562817,0.981079051383399,19.324800339493382,20,2.261326,2.932604,0.31828
19006,Load_Speed_Max,735,43,0.883720930232558,831.674418604651,258.031995148833,5,20,60,Load,Speed_Max,38,833.026315789474,266.067913179883,5,821.4,210.044757135235,0.831674418604651,20.552541804149662,5,1.713878,3.286688,0.439267
19006,Load_Speed_Mid,770,43,0.930232558139535,811.53488372093,292.767366516506,10,20,60,Load,Speed_Mid,40,786.575,268.819059105677,3,1144.33333333333,460.687891455086,0.81153488372093,22.065566254011934,10,1.805466,3.124803,0.385557
19006,NoLoad_Accuracy_Max,320,41,0.878048780487805,884.634146341463,425.635099357276,80,20,60,NoLoad,Accuracy_Max,36,806.138888888889,303.588269374143,5,1449.8,741.944876658637,0.884634146341463,8.82271850013787,80,1.751025,2.620323,0.389122
19006,NoLoad_Accuracy_Mid,540,39,0.897435897435897,972.692307692308,477.241258299701,40,20,60,NoLoad,Accuracy_Mid,35,973.114285714286,496.129120493527,4,969,308.701581898549,0.972692307692308,14.234875444839828,40,2.006861,3.393725,0.387288
19006,NoLoad_Neutral,840,47,0.947165532879819,715.518820861678,248.63620079193,20,20,60,NoLoad,Neutral,89,714.719101123595,262.038251404605,5,685.6,172.154872135528,0.7155188208616781,24.99811436637324,20,1.753014,3.601871,0.354978
19006,NoLoad_Speed_Max,895,56,0.839285714285714,529.196428571429,128.514084073283,5,20,60,NoLoad,Speed_Max,47,532.106382978723,126.934120886893,9,514,143.497386735787,0.529196428571429,30.20077610933014,5,0.839084,6.247657,0.401256
19006,NoLoad_Speed_Mid,840,48,0.916666666666667,708.666666666667,263.929659659969,10,20,60,NoLoad,Speed_Mid,44,663.227272727273,166.077295486499,4,1208.5,576.707031342605,0.708666666666667,24.69426152398871,10,1.492931,4.385353,0.443723
19007,Load_Accuracy_Max,540,32,0.96875,1233.375,406.817526662753,80,20,60,Load,Accuracy_Max,31,1203.25806451613,375.53259669807,1,2167,NA,1.233375,13.681970203709334,80,2.196788,2.230262,0.561066
19007,Load_Accuracy_Mid,460,32,0.90625,1285.8125,536.175671591365,40,20,60,Load,Accuracy_Mid,29,1278.51724137931,558.013416421509,3,1356.33333333333,297.439629729015,1.2858125,11.179701550575997,40,1.535911,2.371564,0.730335
19007,Load_Neutral,550,34.5,0.897727272727273,1157.64898989899,562.259341533735,20,20,60,Load,Neutral,62,1149.43548387097,574.538863442239,7,1197,493.876502781819,1.1576489898989901,13.742586092939154,20,1.883993,2.10112,0.445269
19007,Load_Speed_Max,590,32,0.9375,1286.78125,670.525395077284,5,20,60,Load,Speed_Max,30,1264.3,681.648364703861,2,1624,469.518902707868,1.28678125,14.328387206450204,5,2.066653,2.356238,0.516945
19007,Load_Speed_Mid,570,33,0.909090909090909,1232.60606060606,674.161142615118,10,20,60,Load,Speed_Mid,30,1238.93333333333,686.433508010456,3,1169.33333333333,658.040525601071,1.23260606060606,14.013177303569677,10,2.14217,1.961433,0.414208
19007,NoLoad_Accuracy_Max,580,44,0.931818181818182,817.5,313.77569384277,80,20,60,NoLoad,Accuracy_Max,41,792.463414634146,287.077437075868,3,1159.66666666667,529.197820605238,0.8175,16.12454823464,80,1.452425,5.099171,0.520278
19007,NoLoad_Accuracy_Mid,500,49,0.836734693877551,668.061224489796,246.720524089105,40,20,60,NoLoad,Accuracy_Mid,41,670.390243902439,254.771454253492,8,656.125,215.176630103869,0.668061224489796,15.274171376202833,40,0.820652,3.531906,0.455527
19007,NoLoad_Neutral,640,51,0.813823642664613,623.156911821332,204.769740936777,20,20,60,NoLoad,Neutral,83,625.349397590361,220.078834751846,19,605.105263157895,194.421333630752,0.6231569118213319,20.14411694463181,20,0.791821,3.376364,0.442176
19007,NoLoad_Speed_Max,525,46,0.5,420.195652173913,188.286379936429,5,20,60,NoLoad,Speed_Max,23,472.086956521739,214.426701407917,23,368.304347826087,144.588895204994,0.420195652173913,17.848828185627813,5,0.389541,-0.028288,0.315444
19007,NoLoad_Speed_Mid,840,54,0.851851851851852,562.333333333333,202.81220982187,10,20,60,NoLoad,Speed_Mid,46,562.304347826087,194.154104837165,8,562.5,262.875853371348,0.562333333333333,27.662517289073325,10,1.316955,3.582519,0.375824
19008,Load_Accuracy_Max,560,28,1,1565.42857142857,793.886195247966,80,20,60,Load,Accuracy_Max,28,1565.42857142857,793.886195247966,0,NA,NA,1.56542857142857,12.776054024457029,80,2.716445,1.391037,0.535476
19008,Load_Accuracy_Mid,420,21,1,2083.14285714286,989.494986632792,40,20,60,Load,Accuracy_Mid,21,2083.14285714286,989.494986632792,0,NA,NA,2.08314285714286,9.600877794541203,40,3.340795,1.2426,0.510946
19008,Load_Neutral,420,21,1,2277.92677345538,1642.76230236948,20,20,60,Load,Neutral,42,2251.33333333333,1690.51765295703,0,NA,NA,2.27792677345538,8.779913486710576,20,4.137426,1.50994,0.202007
19008,Load_Speed_Max,540,27,1,1626.96296296296,1165.46733714854,5,20,60,Load,Speed_Max,27,1626.96296296296,1165.46733714854,0,NA,NA,1.62696296296296,12.29284283372794,5,3.040015,1.697041,0.366852
19008,Load_Speed_Mid,430,26,0.884615384615385,1567.03846153846,611.943819693882,10,20,60,Load,Speed_Mid,23,1433.86956521739,502.633365779926,3,2588,366.623785371326,1.56703846153846,10.553960189480419,10,2.464293,2.379471,0.756139
19008,NoLoad_Accuracy_Max,420,36,0.916666666666667,1094.63888888889,723.979287500795,80,20,60,NoLoad,Accuracy_Max,33,1014.51515151515,685.198836160539,3,1976,624.077719518971,1.09463888888889,10.658004922983242,80,2.298306,3.18917,0.405765
19008,NoLoad_Accuracy_Mid,820,44,0.977272727272727,820.772727272727,326.905566596011,40,20,60,NoLoad,Accuracy_Mid,43,799.744186046512,299.151585481918,1,1725,NA,0.820772727272727,22.705875837625285,40,1.954808,3.283806,0.381058
19008,NoLoad_Neutral,780,45,0.934288537549407,781.242588932806,286.380615209578,20,20,60,NoLoad,Neutral,84,776.678571428571,291.06949282906,6,832.333333333333,387.201067491641,0.7812425889328061,22.235784054868507,20,1.627379,3.677369,0.436692
19008,NoLoad_Speed_Max,780,44,0.909090909090909,802.340909090909,402.089423305361,5,20,60,NoLoad,Speed_Max,40,792.475,406.241054339378,4,901,397.070942443958,0.802340909090909,22.094439566042542,5,1.412379,4.205879,0.432796
19008,NoLoad_Speed_Mid,820,44,0.954545454545455,814.818181818182,307.58332376298,10,20,60,NoLoad,Speed_Mid,42,798.47619047619,288.125162343342,2,1158,646.295598004504,0.814818181818182,22.87180631484995,10,2.103522,4.165054,0.393024
19009,Load_Accuracy_Max,640,37,0.972972972972973,1008.81081081081,547.038280086394,80,20,60,Load,Accuracy_Max,36,960.194444444444,466.74500958045,1,2759,NA,1.00881081081081,17.146225151369038,80,2.297484,2.605185,0.391522
19009,Load_Accuracy_Mid,600,39,0.923076923076923,968.461538461538,421.865833383693,40,20,60,Load,Accuracy_Mid,36,927.944444444444,370.024705309906,3,1454.66666666667,775.391728955973,0.968461538461538,15.885623510722798,40,2.027335,3.11966,0.475452
19009,Load_Neutral,590,31.5,0.972972972972973,1390.37474012474,756.557939622059,20,20,60,Load,Neutral,61,1334.67213114754,821.774740451248,2,1238.5,478.711290863293,1.39037474012474,13.607064608510923,20,2.713091,2.049192,0.380983
19009,Load_Speed_Max,590,37,0.837837837837838,1041.97297297297,679.932859695495,5,20,60,Load,Speed_Max,31,1084.09677419355,729.616993352846,6,824.333333333333,258.331311820048,1.0419729729729699,15.303608020128186,5,1.354047,1.365816,0.447806
19009,Load_Speed_Mid,710,37,0.972972972972973,1055.67567567568,562.375124610594,10,20,60,Load,Speed_Mid,36,1009.77777777778,495.106171073357,1,2708,NA,1.05567567567568,18.177163338453585,10,2.459753,2.009879,0.368539
19009,NoLoad_Accuracy_Max,540,37,0.945945945945946,1058.02702702703,758.295767805328,80,20,60,NoLoad,Accuracy_Max,35,984.742857142857,611.651685907878,2,2340.5,2122.02745034083,1.05802702702703,13.794160472066794,80,2.148599,3.875658,0.532812
19009,NoLoad_Accuracy_Mid,640,41,0.926829268292683,927.80487804878,403.223462828752,40,20,60,NoLoad,Accuracy_Mid,38,888.684210526316,350.298568040153,3,1423.33333333333,764.371855403725,0.92780487804878,16.824395373291285,40,1.884368,3.513379,0.508014
19009,NoLoad_Neutral,750,44.5,0.921717171717172,790.40303030303,376.918882049179,20,20,60,NoLoad,Neutral,82,784.268292682927,374.656255581609,7,860.142857142857,426.954497408263,0.79040303030303,21.341880309112238,20,1.258561,2.928435,0.471922
19009,NoLoad_Speed_Max,690,45,0.822222222222222,752.266666666667,469.051383112767,5,20,60,NoLoad,Speed_Max,37,797.621621621622,506.22746047774,8,542.5,61.7506506616963,0.752266666666667,20.678246484698082,5,0.955235,1.858167,0.413842
19009,NoLoad_Speed_Mid,820,47,0.914893617021277,730.553191489362,386.335335782757,10,20,60,NoLoad,Speed_Mid,43,736.302325581395,394.136641454864,4,668.75,328.935023978901,0.730553191489362,23.881640260950615,10,1.483146,4.534978,0.415181
19010,Load_Accuracy_Max,920,46,1,738.760869565217,241.364563797184,80,20,60,Load,Accuracy_Max,46,738.760869565217,241.364563797184,0,NA,NA,0.738760869565217,27.07235970926641,80,1.88292,2.912331,0.398406
19010,Load_Accuracy_Mid,680,49,0.897959183673469,655.040816326531,230.280169864131,40,20,60,Load,Accuracy_Mid,44,652.25,240.50645448961,5,679.6,117.011965200145,0.655040816326531,21.185780602548483,40,1.30065,3.331907,0.401641
19010,Load_Neutral,820,49,0.919583333333333,660.467083333333,261.640566208575,20,20,60,Load,Neutral,90,642.177777777778,205.301618495335,8,860.25,611.198529822465,0.660467083333333,25.411309294369314,20,1.31374,3.919955,0.405045
19010,Load_Speed_Max,965,52,0.942307692307692,584.115384615385,184.996942618738,5,20,60,Load,Speed_Max,49,588,189.008267014964,3,520.666666666667,94.452810087013,0.584115384615385,31.770593270560312,5,1.415767,3.529031,0.335342
19010,Load_Speed_Mid,940,50,0.96,627.24,286.93059389735,10,20,60,Load,Speed_Mid,48,637.166666666667,288.635626391988,2,389,16.9705627484771,0.62724,29.97257827944646,10,1.475079,3.744217,0.35227
19010,NoLoad_Accuracy_Max,780,54,0.944444444444444,564.388888888889,145.954944801297,80,20,60,NoLoad,Accuracy_Max,51,568.666666666667,148.36396687426,3,491.666666666667,76.3500709451755,0.564388888888889,25.593070184073145,80,1.082451,4.915072,0.412612
19010,NoLoad_Accuracy_Mid,780,54,0.907407407407407,569.888888888889,200.174043768772,40,20,60,NoLoad,Accuracy_Mid,49,587.673469387755,201.658993079396,5,395.6,32.8831263720468,0.569888888888889,25.346071358939312,40,1.136825,4.659373,0.353673
19010,NoLoad_Neutral,1030,55.5,0.963450292397661,538.967348927875,176.469151452932,20,20,60,NoLoad,Neutral,107,541.775700934579,180.24790624546,4,441.5,150.089973016188,0.538967348927875,34.395426240165826,20,1.563652,3.814887,0.294512
19010,NoLoad_Speed_Max,960,53,0.924528301886792,586.396226415094,331.423058690309,5,20,60,NoLoad,Speed_Max,49,588.040816326531,344.410121269183,4,566.25,73.7309297377973,0.586396226415094,30.889024743395858,5,1.030375,4.134427,0.392281
19010,NoLoad_Speed_Mid,880,56,0.857142857142857,517.660714285714,178.16899809764,10,20,60,NoLoad,Speed_Mid,48,529.125,177.871651670763,8,448.875,175.160691529643,0.517660714285714,30.356342060781678,10,1.018876,2.631166,0.297658
19011,Load_Accuracy_Max,440,32,0.9375,1285.25,716.44971459858,80,20,60,Load,Accuracy_Max,30,1250.46666666667,688.332203945526,2,1807,1261.4784976368,1.28525,10.698307722233029,80,2.458858,2.37514,0.509376
19011,Load_Accuracy_Mid,480,42,0.857142857142857,868.285714285714,370.587752401459,40,20,60,Load,Accuracy_Mid,36,823.555555555555,375.69170069121,6,1136.66666666667,193.131733971056,0.868285714285714,13.162224415926284,40,1.532407,3.953242,0.435969
19011,Load_Neutral,490,33.5,0.86524500907441,1232.67967332123,553.777192051401,20,20,60,Load,Neutral,58,1098.03448275862,349.92580494373,9,1866.55555555556,1242.42676958353,1.23267967332123,11.852065608912788,20,2.260113,2.69644,0.53961
19011,Load_Speed_Max,685,38,0.921052631578947,1006.97368421053,817.734229171699,5,20,60,Load,Speed_Max,35,1037.22857142857,845.490949814655,3,654,123.745706996243,1.00697368421053,17.901476545145623,5,1.361972,2.3849,0.474722
19011,Load_Speed_Mid,660,39,0.897435897435897,971.717948717949,432.494961864051,10,20,60,Load,Speed_Mid,35,931.771428571429,387.251254941519,4,1321.25,698.729978842566,0.9717179487179489,17.415626566746695,10,1.889782,2.174279,0.431196
19011,NoLoad_Accuracy_Max,680,39,0.974358974358974,983.538461538462,267.55834052977,80,20,60,NoLoad,Accuracy_Max,38,988.342105263158,269.440188049201,1,801,NA,0.983538461538462,17.727723030397787,80,1.959033,2.732848,0.553284
19011,NoLoad_Accuracy_Mid,780,45,0.955555555555556,775.466666666667,225.640865093183,40,20,60,NoLoad,Accuracy_Mid,43,782.372093023256,228.425253300757,2,627,50.9116882454314,0.7754666666666671,22.352132049518598,40,1.343812,3.215172,0.502499
19011,NoLoad_Neutral,800,47,0.925850340136054,731.98843537415,195.10942301398,20,20,60,NoLoad,Neutral,87,731.48275862069,197.828200194769,7,706,266.543304799301,0.7319884353741499,23.2708780388523,20,2.398501,4.581088,0.350504
19011,NoLoad_Speed_Max,750,45,0.866666666666667,768.088888888889,257.574245450107,5,20,60,NoLoad,Speed_Max,39,720.641025641026,191.090153314233,6,1076.5,417.867323441305,0.7680888888888889,21.6988774447402,5,1.230701,3.266597,0.518041
19011,NoLoad_Speed_Mid,840,48,0.916666666666667,701.166666666667,356.003187490711,10,20,60,NoLoad,Speed_Mid,44,714.340909090909,365.611557955684,4,556.25,197.628228415545,0.7011666666666669,24.958402662229616,10,1.499231,3.92416,0.356444
19012,Load_Accuracy_Max,640,47,0.936170212765957,698.042553191489,242.00098431769,80,20,60,Load,Accuracy_Max,44,710.5,244.513993512142,3,515.333333333333,89.8461648226196,0.698042553191489,19.507437210436425,80,1.420922,2.852574,0.378075
19012,Load_Accuracy_Mid,900,51,0.96078431372549,614.196078431373,237.22074273619901,40,20,60,Load,Accuracy_Mid,49,613.69387755102,238.472937325674,2,626.5,289.206673505298,0.614196078431373,28.731962712297236,40,1.81706,5.619305,0.330757
19012,Load_Neutral,800,49,0.906666666666667,657.500833333333,223.05362375601,20,20,60,Load,Neutral,89,662.426966292135,231.602121969811,9,604.333333333333,156.651683680706,0.6575008333333331,24.74014608346507,20,1.284974,3.257761,0.40658
19012,Load_Speed_Max,890,52,0.884615384615385,577.288461538462,167.925209372163,5,20,60,Load,Speed_Max,46,591.04347826087,173.730820718814,6,471.833333333333,30.0227691372176,0.577288461538462,29.64788966987574,5,0.805216,4.799431,0.424176
19012,Load_Speed_Mid,860,49,0.918367346938776,644.510204081633,219.064690069792,10,20,60,Load,Speed_Mid,45,646.6,228.2546823178,4,621,53.7649204097492,0.644510204081633,27.231563281720028,10,1.172834,5.046108,0.42638
19012,NoLoad_Accuracy_Max,600,45,0.933333333333333,786.911111111111,256.435249865804,80,20,60,NoLoad,Accuracy_Max,42,792.404761904762,264.069194509633,3,710,87.6070773396762,0.786911111111111,16.943887492587013,80,1.469866,3.470023,0.483729
19012,NoLoad_Accuracy_Mid,780,45,0.955555555555556,782.222222222222,355.477073093258,40,20,60,NoLoad,Accuracy_Mid,43,775.441860465116,358.768482339608,2,928,330.925973595304,0.7822222222222219,22.159090909090956,40,1.813801,4.859343,0.437487
19012,NoLoad_Neutral,770,51.5,0.872264150943396,613.96320754717,200.970166795656,20,20,60,NoLoad,Neutral,90,618.811111111111,213.622942758752,13,573.769230769231,150.955376323686,0.6139632075471699,24.253189531054794,20,0.843878,3.405637,0.431659
19012,NoLoad_Speed_Max,855,54,0.833333333333333,562.851851851852,132.400394374293,5,20,60,NoLoad,Speed_Max,45,571.488888888889,135.761090660667,9,519.666666666667,110.665035128536,0.5628518518518519,28.13055208264787,5,1.132725,5.087941,0.395806
19012,NoLoad_Speed_Mid,930,51,0.941176470588235,626.56862745098,178.897652852346,10,20,60,NoLoad,Speed_Mid,48,627.375,181.996682808208,3,613.666666666667,146.486631927058,0.62656862745098,29.10342669378814,10,1.287877,4.072325,0.413165
19013,Load_Accuracy_Max,440,42,0.904761904761905,834.880952380952,459.406149145004,80,20,60,Load,Accuracy_Max,38,837.052631578947,477.259855977876,4,814.25,272.998626370171,0.834880952380952,12.548124910879826,80,1.598019,3.277091,0.378978
19013,Load_Accuracy_Mid,920,52,0.961538461538462,588.269230769231,173.435880154272,40,20,60,Load,Accuracy_Mid,50,595.64,171.585970598189,2,404,144.249783362056,0.588269230769231,30.07518796992485,40,1.391675,4.146538,0.36938
19013,Load_Neutral,770,50.5,0.881372549019608,619.88431372549,181.663581598392,20,20,60,Load,Neutral,89,628.280898876405,192.792987705139,12,556.583333333333,109.228250036612,0.6198843137254899,24.609272444890124,20,1.088358,5.469882,0.450669
19013,Load_Speed_Max,860,53,0.849056603773585,565.735849056604,204.263512964485,5,20,60,Load,Speed_Max,45,566.022222222222,183.836202895266,8,564.125,312.270229814773,0.565735849056604,28.68196371398079,5,1.287516,3.946101,0.335892
19013,Load_Speed_Mid,830,52,0.865384615384615,591.134615384615,150.141113864252,10,20,60,Load,Speed_Mid,45,596.688888888889,152.305139622915,7,555.428571428571,140.64477374205,0.591134615384615,27.001529002244702,10,0.966015,3.502519,0.427386
19013,NoLoad_Accuracy_Max,660,48,0.9375,701.875,217.525799399187,80,20,60,NoLoad,Accuracy_Max,45,705.111111111111,222.586471677273,3,653.333333333333,134.930846485647,0.701875,19.590382902938558,80,1.112524,3.986691,0.476845
19013,NoLoad_Accuracy_Mid,900,51,0.96078431372549,617.941176470588,216.933760559735,40,20,60,NoLoad,Accuracy_Mid,49,598.714285714286,183.305755501566,2,1089,527.501658765165,0.617941176470588,28.557829604950015,40,1.204768,3.924248,0.398839
19013,NoLoad_Neutral,930,53.5,0.93466107617051,578.8071278826,97.9670357502836,20,20,60,NoLoad,Neutral,100,581.16,97.9666733685956,7,543.571428571429,109.131201072924,0.5788071278825999,30.03840521180815,20,1.001093,6.355805,0.475418
19013,NoLoad_Speed_Max,690,49,0.591836734693878,364.816326530612,113.740507565355,5,20,60,NoLoad,Speed_Max,29,395.51724137931,119.240040221891,20,320.3,90.5812226387834,0.364816326530612,26.851644663235668,5,0.67695,1.676696,0.233093
19013,NoLoad_Speed_Mid,900,51,0.92156862745098,625.254901960784,133.032754333248,10,20,60,NoLoad,Speed_Mid,47,634.276595744681,132.261385164191,4,519.25,102.35681055341,0.6252549019607839,28.2237832413447,10,1.223704,5.193755,0.46447
19014,Load_Accuracy_Max,380,34,0.911764705882353,1193.23529411765,705.038535754178,80,20,60,Load,Accuracy_Max,31,1214.96774193548,724.17757876877,3,968.666666666667,502.338863052953,1.19323529411765,9.366526990386971,80,2.399464,2.192332,0.417651
19014,Load_Accuracy_Mid,280,35,0.8,1136.28571428571,583.698278798446,40,20,60,Load,Accuracy_Mid,28,1270,562.262822425137,7,601.428571428571,301.393351587178,1.13628571428571,7.040482775961809,40,2.502262,2.045965,0.302823
19014,Load_Neutral,590,37.5,0.883333333333333,1079.18888888889,468.662192083319,20,20,60,Load,Neutral,67,983.850746268657,544.078098608829,8,1257.25,834.185102788515,1.07918888888889,14.20820163291358,20,1.99131,2.464162,0.391005
19014,Load_Speed_Max,545,40,0.55,627.025,470.086979813038,5,20,60,Load,Speed_Max,22,565.409090909091,452.877220730163,18,702.333333333333,492.629678358907,0.6270249999999999,13.954786491766678,5,0.736896,1.100121,0.200514
19014,Load_Speed_Mid,400,36,0.611111111111111,756.083333333333,610.129324698578,10,20,60,Load,Speed_Mid,22,759.136363636364,679.557019259048,14,751.285714285714,506.172884507842,0.756083333333333,11.021712774165108,10,0.893685,1.07568,0.179909
19014,NoLoad_Accuracy_Max,200,40,0.85,946.775,456.073964283685,80,20,60,NoLoad,Accuracy_Max,34,938.323529411765,460.825722700369,6,994.666666666667,466.487584686524,0.9467749999999999,5.281085791238677,80,1.263884,3.531371,0.547242
19014,NoLoad_Accuracy_Mid,520,38,0.894736842105263,1035.28947368421,729.193701618985,40,20,60,NoLoad,Accuracy_Mid,34,1009.44117647059,722.646197483919,4,1255,861.158521992322,1.03528947368421,13.217762639485525,40,1.649848,2.817354,0.414891
19014,NoLoad_Neutral,440,42.5,0.77039627039627,931.49796037296,553.992806210068,20,20,60,NoLoad,Neutral,64,935.984375,729.541702022632,21,605.666666666667,343.565617216469,0.9314979603729601,11.61124476485195,20,1.790646,3.025428,0.270186
19014,NoLoad_Speed_Max,525,33,0.606060606060606,483.090909090909,198.655695179556,5,20,60,NoLoad,Speed_Max,20,521.5,191.850133396385,13,424,201.789907246786,0.483090909090909,21.0136745703174,5,1.313823,3.831102,0.24116
19014,NoLoad_Speed_Mid,520,48,0.6875,666.5,288.307828987211,10,20,60,NoLoad,Speed_Mid,33,679.424242424242,308.226786464025,15,638.066666666667,246.250008460237,0.6665,15.941485371342836,10,1.14531,0.862037,0.296712
19015,Load_Accuracy_Max,900,45,1,719.155555555556,304.62584767335,80,20,60,Load,Accuracy_Max,45,719.155555555556,304.62584767335,0,NA,NA,0.719155555555556,27.81039490760767,80,1.888718,3.717263,0.366434
19015,Load_Accuracy_Mid,560,40,0.9,916.65,428.73938949269,40,20,60,Load,Accuracy_Mid,36,865.194444444444,410.88085304237,4,1379.75,319.84931347954,0.91665,15.273004963726613,40,1.788027,3.30318,0.447319
19015,Load_Neutral,850,48.5,0.938085106382979,669.023617021277,252.234757209456,20,20,60,Load,Neutral,91,670.78021978022,262.862397555908,6,619.5,197.073336603408,0.669023617021277,26.192504733000877,20,1.676187,4.035446,0.36653
19015,Load_Speed_Max,845,46,0.934782608695652,734.934782608696,352.665242730201,5,20,60,Load,Speed_Max,43,743.697674418605,360.143657506393,3,609.333333333333,222.036783739392,0.7349347826086959,24.994823557251443,5,1.74676,3.148437,0.347192
19015,Load_Speed_Mid,960,48,1,668.833333333333,199.851150283163,10,20,60,Load,Speed_Mid,48,668.833333333333,199.851150283163,0,NA,NA,0.6688333333333331,29.902815848492413,10,2.12363,4.037083,0.381278
19015,NoLoad_Accuracy_Max,640,42,0.952380952380952,887.928571428571,589.86424204372,80,20,60,NoLoad,Accuracy_Max,40,772.75,282.806153597867,2,3191.5,53.0330085889911,0.887928571428571,17.161397581315494,80,1.960945,3.503,0.399087
19015,NoLoad_Accuracy_Mid,840,48,0.958333333333333,704.604166666667,287.938360689814,40,20,60,NoLoad,Accuracy_Mid,46,699.478260869565,285.127163765412,2,822.5,457.498087427696,0.7046041666666669,24.836639957422868,40,1.653146,5.423467,0.42797
19015,NoLoad_Neutral,860,50,0.93,651.44,239.686987322664,20,20,60,NoLoad,Neutral,93,642.290322580645,200.726158941954,7,773,553.38473656821,0.65144,26.403045560604202,20,1.533365,3.612706,0.385733
19015,NoLoad_Speed_Max,935,53,0.905660377358491,584.094339622642,184.56323329073,5,20,60,NoLoad,Speed_Max,48,579.8125,178.965425907388,5,625.2,253.294690035145,0.584094339622642,30.20318506315211,5,1.193205,7.491402,0.428864
19015,NoLoad_Speed_Mid,820,48,0.916666666666667,713.291666666667,269.91763584813,10,20,60,NoLoad,Speed_Mid,44,703.840909090909,250.345430488747,4,817.25,476.836362567565,0.713291666666667,24.534143349494713,10,1.772078,4.830335,0.357948
19016,Load_Accuracy_Max,640,42,0.952380952380952,851.261904761905,424.337995719117,80,20,60,Load,Accuracy_Max,40,857.35,431.735469222318,2,729.5,286.378246380552,0.851261904761905,17.900595754202396,80,1.993399,3.167468,0.405697
19016,Load_Accuracy_Mid,600,42,0.904761904761905,851.547619047619,521.373196350025,40,20,60,Load,Accuracy_Mid,38,868.236842105263,543.038171681579,4,693,202.443407729996,0.851547619047619,16.77617782748499,40,1.463024,3.486009,0.499519
19016,Load_Neutral,580,44,0.830745341614907,772.847826086957,355.420269130292,20,20,60,Load,Neutral,73,799.315068493151,376.121466665296,15,623.2,250.056336509538,0.7728478260869569,17.118264706236914,20,1.435705,3.03515,0.356328
19016,Load_Speed_Max,780,44,0.909090909090909,789.204545454545,938.523322542175,5,20,60,Load,Speed_Max,40,806.4,982.429087934856,4,617.25,186.108167472575,0.789204545454545,22.462203023758107,5,1.938455,5.502962,0.330866
19016,Load_Speed_Mid,890,49,0.938775510204082,664.448979591837,311.409768982425,10,20,60,Load,Speed_Mid,46,674.413043478261,319.006971438066,3,511.666666666667,20.1328918273887,0.664448979591837,27.335831439277605,10,1.848959,3.944828,0.380086
19016,NoLoad_Accuracy_Max,200,40,0.85,941.2,880.162024711126,80,20,60,NoLoad,Accuracy_Max,34,915.5,872.968542249705,6,1086.83333333333,991.419874052698,0.9412,5.312367190820227,80,1.47263,2.464128,0.290346
19016,NoLoad_Accuracy_Mid,800,47,0.936170212765957,739.63829787234,273.186624022601,40,20,60,NoLoad,Accuracy_Mid,44,729.954545454545,277.073070250301,3,881.666666666667,183.429368786281,0.73963829787234,21.862324885654264,40,1.574515,3.099298,0.410961
19016,NoLoad_Neutral,630,49.5,0.814814814814815,675.931481481482,363.528238279326,20,20,60,NoLoad,Neutral,81,685.456790123457,465.521348849403,18,580.555555555556,131.44366819477,0.6759314814814821,18.629983863146325,20,0.904838,2.370086,0.416463
19016,NoLoad_Speed_Max,535,37,0.756756756756757,1058.91891891892,1447.2248227859,5,20,60,NoLoad,Speed_Max,28,746.785714285714,812.616640386354,9,2030,2407.18367599982,1.05891891891892,13.144461459928527,5,0.933923,2.071981,0.327383
19016,NoLoad_Speed_Mid,610,53,0.716981132075472,592.094339622641,170.215052230423,10,20,60,NoLoad,Speed_Mid,38,609.78947368421,165.246442966949,15,547.266666666667,180.124348582808,0.592094339622641,19.438513750358528,10,1.146243,3.175556,0.364538
19017,Load_Accuracy_Max,680,39,0.974358974358974,957.923076923077,435.685750139357,80,20,60,Load,Accuracy_Max,38,943.447368421053,431.925024610498,1,1508,NA,0.957923076923077,18.201771996038403,80,2.111234,2.416589,0.373447
19017,Load_Accuracy_Mid,780,39,1,969.102564102564,660.72710326825,40,20,60,Load,Accuracy_Mid,39,969.102564102564,660.72710326825,0,NA,NA,0.969102564102564,20.637650482868107,40,2.200219,4.027361,0.424256
19017,Load_Neutral,740,45,0.911111111111111,749.511111111111,277.677171520341,20,20,60,Load,Neutral,82,755.792682926829,280.417005956754,8,685.125,290.618767214271,0.7495111111111109,21.940227703984824,20,1.441199,4.176487,0.446829
19017,Load_Speed_Max,805,44,0.931818181818182,797.272727272727,285.739543432058,5,20,60,Load,Speed_Max,41,814.073170731707,287.976248173691,3,567.666666666667,109.276407944869,0.797272727272727,22.94754846066136,5,1.869973,3.764661,0.419975
19017,Load_Speed_Mid,730,41,0.926829268292683,878.268292682927,380.43652718885,10,20,60,Load,Speed_Mid,38,863.552631578947,365.531504714482,3,1064.66666666667,605.443914275578,0.878268292682927,20.27270960037768,10,1.943688,2.54929,0.349981
19017,NoLoad_Accuracy_Max,560,48,0.916666666666667,688.270833333333,316.922753161762,80,20,60,NoLoad,Accuracy_Max,44,703.363636363636,322.365175777272,4,522.25,209.663818210646,0.688270833333333,16.950691648757502,80,1.718445,4.415118,0.341606
19017,NoLoad_Accuracy_Mid,480,45,0.844444444444444,761.333333333333,363.789711984073,40,20,60,NoLoad,Accuracy_Mid,38,740.105263157895,302.672223877061,7,876.571428571429,622.283391267692,0.7613333333333331,14.010507880910652,40,1.264659,3.610382,0.431493
19017,NoLoad_Neutral,870,49.5,0.939183673469388,656.634285714286,235.575416461905,20,20,60,NoLoad,Neutral,93,666.666666666667,237.405099270046,6,499.833333333333,106.134662889495,0.656634285714286,26.753624233412946,20,1.3651199999999999,3.887693,0.378727
19017,NoLoad_Speed_Max,900,50,0.92,654.36,225.20093159629,5,20,60,NoLoad,Speed_Max,46,661.413043478261,228.510887276438,4,573.25,188.572488272636,0.65436,27.507793874931235,5,1.360301,3.581968,0.370546
19017,NoLoad_Speed_Mid,880,50,0.92,656.7,182.196714726536,10,20,60,NoLoad,Speed_Mid,46,670.086956521739,183.706750143562,4,502.75,40.3019850627733,0.6567000000000001,26.80067001675042,10,1.347606,3.950633,0.432508
19018,Load_Accuracy_Max,580,44,0.931818181818182,798.113636363636,346.170358377241,80,20,60,Load,Accuracy_Max,41,806.634146341463,354.138303216241,3,681.666666666667,215.226237557909,0.7981136363636361,16.516217216732663,80,1.641688,4.109275,0.463773
19018,Load_Accuracy_Mid,580,47,0.872340425531915,694.595744680851,313.659234893017,40,20,60,Load,Accuracy_Mid,41,693.146341463415,321.49335615029503,6,704.5,279.493649301733,0.694595744680851,17.766341971451343,40,1.056226,3.608405,0.445626
19018,Load_Neutral,800,48,0.917064698219713,680.032783326096,177.538321710505,20,20,60,Load,Neutral,88,680.568181818182,182.921237711348,8,665.875,160.229690043477,0.6800327833260961,24.532034833957,20,1.372848,5.105215,0.474824
19018,Load_Speed_Max,860,48,0.916666666666667,687.625,245.923584827621,5,20,60,Load,Speed_Max,44,704.454545454545,248.18180269343,4,502.5,121.63743941183,0.687625,26.05586862994608,5,1.455776,2.963457,0.346184
19018,Load_Speed_Mid,750,48,0.854166666666667,677.3125,270.906685374966,10,20,60,Load,Speed_Mid,41,675.19512195122,286.725671985628,7,689.714285714286,163.108056500095,0.6773125,23.069115068745976,10,1.060239,2.518585,0.446241
19018,NoLoad_Accuracy_Max,840,47,0.978723404255319,718.978723404255,236.239606567947,80,20,60,NoLoad,Accuracy_Max,46,718.217391304348,238.791765449265,1,754,NA,0.718978723404255,24.85795454545454,80,1.661551,4.347553,0.424406
19018,NoLoad_Accuracy_Mid,940,50,0.98,654.5,180.702512321173,40,20,60,NoLoad,Accuracy_Mid,49,656.591836734694,181.962440992565,1,552,NA,0.6545,28.72421695951108,40,1.432306,6.396937,0.469365
19018,NoLoad_Neutral,710,52.5,0.837690631808279,592.32734204793,176.558328193747,20,20,60,NoLoad,Neutral,88,588.170454545455,150.042999322754,17,609.058823529412,288.825957669198,0.5923273420479299,22.80432509772299,20,1.077878,4.667552,0.411138
19018,NoLoad_Speed_Max,775,55,0.763636363636364,542.272727272727,161.842224786691,5,20,60,NoLoad,Speed_Max,42,583.97619047619,153.279990595123,13,407.538461538462,108.816830334754,0.542272727272727,25.98491198658846,5,1.04179,3.824723,0.35588
19018,NoLoad_Speed_Mid,740,55,0.781818181818182,551.636363636364,163.265900324453,10,20,60,NoLoad,Speed_Mid,43,572.209302325581,149.98977078447,12,477.916666666667,193.326129698607,0.5516363636363639,24.39024390243902,10,1.328602,4.367331,0.338208
19019,Load_Accuracy_Max,840,47,0.978723404255319,710.702127659574,165.781537086772,80,20,60,Load,Accuracy_Max,46,702.54347826087,157.785467084863,1,1086,NA,0.710702127659574,25.14744184654073,80,1.295605,3.573537,0.47416
19019,Load_Accuracy_Mid,900,48,0.979166666666667,688.625,172.254466019984,40,20,60,Load,Accuracy_Mid,47,691.957446808511,172.545640773278,1,532,NA,0.688625,27.228172082047582,40,1.181629,4.915703,0.498988
19019,Load_Neutral,830,45.5,0.956280193236715,741.738647342995,289.1636369558,20,20,60,Load,Neutral,87,741.287356321839,290.409690883773,4,749.25,264.73052336291,0.741738647342995,24.605981897864986,20,1.885311,3.443487,0.392828
19019,Load_Speed_Max,920,51,0.92156862745098,609.843137254902,147.690943872537,5,20,60,Load,Speed_Max,47,604.276595744681,152.449378929483,4,675.25,31.542299641381,0.609843137254902,29.58009131245577,5,1.035777,5.059694,0.453123
19019,Load_Speed_Mid,870,48,0.9375,671.104166666667,271.579950971171,10,20,60,Load,Speed_Mid,45,685.044444444444,274.920811371661,3,462,22.5166604983954,0.671104166666667,27.007729798528533,10,0.905838,5.048589,0.42898
19019,NoLoad_Accuracy_Max,780,49,0.959183673469388,673.387755102041,181.855461874549,80,20,60,NoLoad,Accuracy_Max,47,657.255319148936,157.068175184772,2,1052.5,391.030049996161,0.673387755102041,23.63922899745427,80,1.334096,4.300401,0.436876
19019,NoLoad_Accuracy_Mid,860,49,0.959183673469388,678.326530612245,217.631510792431,40,20,60,NoLoad,Accuracy_Mid,47,674.851063829787,221.265920942613,2,760,86.2670273047588,0.678326530612245,25.87399963896747,40,1.271397,4.16366,0.45653
19019,NoLoad_Neutral,910,48.5,0.96936170212766,699.295319148936,265.595420234567,20,20,60,NoLoad,Neutral,94,701.340425531915,273.630374390462,3,597,158.823801742686,0.699295319148936,26.847695917592453,20,1.575807,3.566201,0.381223
19019,NoLoad_Speed_Max,1055,54,0.981481481481482,570.648148148148,150.000648729089,5,20,60,NoLoad,Speed_Max,53,570.056603773585,151.372492051173,1,602,NA,0.570648148148148,34.23657309751747,5,1.1841,6.010057,0.415659
19019,NoLoad_Speed_Mid,870,48,0.9375,709.541666666667,199.777637912578,10,20,60,NoLoad,Speed_Mid,45,703.288888888889,198.785588262857,3,803.333333333333,233.431645955156,0.709541666666667,25.544659110928407,10,1.214784,3.501994,0.477946
19020,Load_Accuracy_Max,580,34,0.970588235294118,1186.91176470588,647.358472547174,80,20,60,Load,Accuracy_Max,33,1193.66666666667,656.177694429388,1,964,NA,1.18691176470588,14.372444554578175,80,2.277544,2.120212,0.440128
19020,Load_Accuracy_Mid,620,40,0.925,929.675,617.816684599267,40,20,60,Load,Accuracy_Mid,37,914.756756756757,626.363863252973,3,1113.66666666667,571.168393149808,0.9296749999999999,16.672493075537155,40,1.740657,2.545548,0.383657
19020,Load_Neutral,660,43,0.883720930232558,816.267441860465,412.102593575635,20,20,60,Load,Neutral,76,811.828947368421,423.834980093523,10,850,370.754485999683,0.8162674418604651,18.803686662203162,20,1.473773,1.870576,0.398208
19020,Load_Speed_Max,780,44,0.909090909090909,790.727272727273,271.371911935885,5,20,60,Load,Speed_Max,40,797.975,281.875084854157,4,718.25,122.249403543194,0.790727272727273,22.418946884341217,5,1.823998,2.896455,0.381458
19020,Load_Speed_Mid,650,34,0.970588235294118,1199.29411764706,808.48059999632,10,20,60,Load,Speed_Mid,33,1134.48484848485,725.807271302622,1,3338,NA,1.19929411764706,15.940749460466934,10,3.205839,2.526319,0.246294
19020,NoLoad_Accuracy_Max,220,46,0.847826086956522,742.521739130435,207.566721709798,80,20,60,NoLoad,Accuracy_Max,39,701.128205128205,134.435501946234,7,973.142857142857,368.076273151561,0.742521739130435,6.441035250029302,80,1.313313,4.206685,0.526153
19020,NoLoad_Accuracy_Mid,680,49,0.897959183673469,680.30612244898,227.49104415354,40,20,60,NoLoad,Accuracy_Mid,44,674.659090909091,233.494578711212,5,730,177.486619213957,0.6803061224489799,20.398980050997412,40,1.528768,3.481523,0.378148
19020,NoLoad_Neutral,840,51,0.911764705882353,617.382352941176,250.219635858749,20,20,60,NoLoad,Neutral,93,630.440860215054,253.815641000793,9,482.444444444444,151.048097564245,0.617382352941176,26.678100138154473,20,1.512471,3.556753,0.296154
19020,NoLoad_Speed_Max,945,56,0.875,520.107142857143,138.218098876894,5,20,60,NoLoad,Speed_Max,49,523.714285714286,143.691944798586,7,494.857142857143,95.3579721740288,0.520107142857143,32.44523793174483,5,1.206657,3.721286,0.324042
19020,NoLoad_Speed_Mid,990,51,0.980392156862745,613.470588235294,243.051875363362,10,20,60,NoLoad,Speed_Mid,50,615.84,244.923758232922,1,495,NA,0.613470588235294,31.642535238277876,10,1.721754,5.010898,0.352894
19021,Load_Accuracy_Max,520,41,0.926829268292683,893.170731707317,269.617961423106,80,20,60,Load,Accuracy_Max,38,901.921052631579,278.411554355889,3,782.333333333333,2.08166599946613,0.893170731707317,14.199890770071008,80,1.498024,2.695175,0.523816
19021,Load_Accuracy_Mid,320,40,0.8,921.8,318.362090257022,40,20,60,Load,Accuracy_Mid,32,958.9375,320.330065411368,8,773.25,280.61144972058,0.9218,8.678672163159039,40,1.326694,2.665141,0.522593
19021,Load_Neutral,690,45.5,0.877176015473888,758.723404255319,222.856946143912,20,20,60,Load,Neutral,80,749.9,220.732130460705,11,811.363636363636,263.613077341498,0.758723404255319,19.88477030540969,20,1.285848,3.244931,0.481023
19021,Load_Speed_Max,680,49,0.755102040816326,653.65306122449,193.96579928564,5,20,60,Load,Speed_Max,37,678.54054054054,207.99139867293,12,576.916666666667,118.68097675038,0.65365306122449,21.230759624090645,5,0.795627,1.561612,0.453089
19021,Load_Speed_Mid,700,47,0.829787234042553,693.744680851064,145.742845015683,10,20,60,Load,Speed_Mid,39,694.794871794872,148.739294968567,8,688.625,139.460119747546,0.693744680851064,21.468441391154986,10,0.794581,3.224376,0.532843
19021,NoLoad_Accuracy_Max,460,43,0.906976744186046,852.209302325581,231.292904193912,80,20,60,NoLoad,Accuracy_Max,39,842.205128205128,227.817930476716,4,949.75,278.478455181007,0.852209302325581,12.552872151725966,80,1.195143,3.105425,0.574955
19021,NoLoad_Accuracy_Mid,500,43,0.86046511627907,857.46511627907,287.170958609046,40,20,60,NoLoad,Accuracy_Mid,37,882.189189189189,290.037721477534,6,705,233.727191400573,0.85746511627907,13.560793035176706,40,1.520866,2.792768,0.449926
19021,NoLoad_Neutral,630,47.5,0.831560283687943,709.79920212766,185.373825818378,20,20,60,NoLoad,Neutral,79,711.316455696203,187.268184513191,16,701.25,180.652336455045,0.70979920212766,18.68473690554026,20,1.553637,3.794659,0.416635
19021,NoLoad_Speed_Max,680,49,0.755102040816326,667.469387755102,115.737688697477,5,20,60,NoLoad,Speed_Max,37,674.108108108108,118.279514471203,12,647,109.822170306861,0.667469387755102,20.791292117654237,5,0.781131,2.774483,0.539951
19021,NoLoad_Speed_Mid,650,49,0.775510204081633,671.877551020408,211.712622896882,10,20,60,NoLoad,Speed_Mid,38,671.842105263158,226.572645269982,11,672,158.765865348947,0.6718775510204079,19.743636474090298,10,1.048135,2.976545,0.438166
19022,Load_Accuracy_Max,840,47,0.978723404255319,708.446808510638,218.823217164056,80,20,60,Load,Accuracy_Max,46,708.739130434783,221.231948143181,1,695,NA,0.708446808510638,25.227497972790335,80,1.619625,6.118533,0.454526
19022,Load_Accuracy_Mid,680,46,0.91304347826087,727.152173913043,298.741357282055,40,20,60,Load,Accuracy_Mid,42,732.357142857143,309.677788600689,4,672.5,153.936133943052,0.7271521739130431,20.329456784956243,40,1.391972,3.000396,0.471746
19022,Load_Neutral,760,48,0.895788102475032,680.815675206253,179.283401802666,20,20,60,Load,Neutral,86,675.372093023256,184.258389322081,10,723.1,151.741336930097,0.680815675206253,23.253759682024253,20,1.279922,3.789785,0.466091
19022,Load_Speed_Max,775,50,0.82,624.9,169.291832318621,5,20,60,Load,Speed_Max,41,620.170731707317,144.925481272105,9,646.444444444444,264.361547464411,0.6249,24.803968634981594,5,1.236139,6.010311,0.452658
19022,Load_Speed_Mid,760,50,0.84,636.38,333.748401509586,10,20,60,Load,Speed_Mid,42,651.714285714286,345.644910538525,8,555.875,266.726418156989,0.63638,23.88510009742607,10,1.149082,3.397644,0.335854
19022,NoLoad_Accuracy_Max,400,50,0.88,637.44,173.413997975589,80,20,60,NoLoad,Accuracy_Max,44,638.090909090909,171.261233640283,6,632.666666666667,206.002588980495,0.63744,12.550200803212855,80,1.162879,3.403017,0.426805
19022,NoLoad_Accuracy_Mid,740,52,0.903846153846154,615.403846153846,157.736595976987,40,20,60,NoLoad,Accuracy_Mid,47,608.255319148936,150.923745226739,5,682.6,221.44818807116,0.6154038461538459,23.124277366332326,40,1.081827,4.570926,0.442845
19022,NoLoad_Neutral,740,53,0.849056603773585,583.915094339623,132.422923092894,20,20,60,NoLoad,Neutral,90,587.3,130.163980416061,16,564.875,147.954891774486,0.583915094339623,23.911462961467,20,0.939367,5.325954,0.447176
19022,NoLoad_Speed_Max,855,54,0.833333333333333,561.092592592593,135.977005342193,5,20,60,NoLoad,Speed_Max,45,545.355555555556,118.869132692515,9,639.777777777778,190.84534168914,0.5610925925925929,28.218753094161492,5,0.929325,3.385783,0.399657
19022,NoLoad_Speed_Mid,960,54,0.925925925925926,559.092592592593,126.248821181647,10,20,60,NoLoad,Speed_Mid,50,558.6,126.086785790662,4,565.25,147.867902760087,0.5590925925925929,31.797555562916084,10,1.050066,5.015762,0.421321
19023,Load_Accuracy_Max,420,31,0.935483870967742,1332.22580645161,697.346910782929,80,20,60,Load,Accuracy_Max,29,1280.55172413793,607.123109791869,2,2081.5,1751.50349699908,1.33222580645161,10.16973776604763,80,1.736672,1.336658,0.544927
19023,Load_Accuracy_Mid,800,46,0.956521739130435,745.065217391304,194.991213725008,40,20,60,Load,Accuracy_Mid,44,754.772727272727,193.816727580628,2,531.5,17.6776695296637,0.745065217391304,23.341989321039918,40,1.410993,3.593921,0.46508
19023,Load_Neutral,620,41,0.87797619047619,883.706547619048,496.197927275237,20,20,60,Load,Neutral,72,859.583333333333,487.971707503564,10,1052.6,584.344304897949,0.883706547619048,17.108674434723305,20,1.569063,3.005389,0.411701
19023,Load_Speed_Max,735,48,0.8125,669.4375,266.223223106619,5,20,60,Load,Speed_Max,39,665.923076923077,264.087244815977,9,684.666666666667,291.193234811525,0.6694375,22.873681262253758,5,0.824097,3.75365,0.433544
19023,Load_Speed_Mid,740,46,0.869565217391304,735.739130434783,230.453604372151,10,20,60,Load,Speed_Mid,40,741.575,236.602651598814,6,696.833333333333,198.092318545335,0.735739130434783,21.865027774494713,10,1.132391,4.256356,0.489418
19023,NoLoad_Accuracy_Max,500,35,0.942857142857143,1157.22857142857,569.857571767578,80,20,60,NoLoad,Accuracy_Max,33,1147.60606060606,578.664569255904,2,1316,521.844804515672,1.15722857142857,12.34476458533938,80,1.558038,3.024935,0.499831
19023,NoLoad_Accuracy_Mid,700,44,0.931818181818182,816.409090909091,263.313882743896,40,20,60,NoLoad,Accuracy_Mid,41,822.121951219512,270.614688729377,3,738.333333333333,127.382625712196,0.816409090909091,19.486665553142934,40,1.130798,5.844767,0.585074
19023,NoLoad_Neutral,840,48,0.93747286148502,706.984802431611,273.82604052319,20,20,60,NoLoad,Neutral,90,697.866666666667,277.04399520816,6,834.333333333333,192.979446228521,0.706984802431611,24.751471883433492,20,1.757812,5.484425,0.419468
19023,NoLoad_Speed_Max,825,55,0.8,549.472727272727,158.126631690654,5,20,60,NoLoad,Speed_Max,44,561.045454545455,166.390400347182,11,503.181818181818,114.133972314836,0.549472727272727,27.298898117203283,5,1.090139,5.840585,0.386722
19023,NoLoad_Speed_Mid,820,53,0.849056603773585,588.698113207547,178.532757703718,10,20,60,NoLoad,Speed_Mid,45,603.622222222222,187.550149522357,8,504.75,78.6869929349372,0.588698113207547,26.28120893561106,10,1.117431,4.532004,0.384665
19024,Load_Accuracy_Max,440,27,0.962962962962963,1626.62962962963,996.689603257787,80,20,60,Load,Accuracy_Max,26,1645.5,1011.49727631863,1,1136,NA,1.62662962962963,10.018443042874383,80,2.64428,2.63418,0.4439
19024,Load_Accuracy_Mid,560,34,0.941176470588235,1210.35294117647,769.346234951151,40,20,60,Load,Accuracy_Mid,32,1222.75,789.784494901677,2,1012,335.168614282424,1.21035294117647,13.608087091757378,40,2.121145,3.224603,0.441502
19024,Load_Neutral,520,27,0.984375,1723.06960227273,792.619673366951,20,20,60,Load,Neutral,53,1652.22641509434,896.640345561599,1,1068,NA,1.7230696022727299,11.244467417012268,20,3.675442,1.500369,0.227068
19024,Load_Speed_Max,545,40,0.75,900.65,443.918712240116,5,20,60,Load,Speed_Max,30,891.166666666667,478.666616639449,10,929.1,338.323792968938,0.90065,15.26675179037362,5,0.989214,2.723452,0.507423
19024,Load_Speed_Mid,640,41,0.853658536585366,876.219512195122,406.335237962149,10,20,60,Load,Speed_Mid,35,918.457142857143,423.556534378973,6,629.833333333333,124.940652578201,0.876219512195122,17.81489213639527,10,1.204678,5.222606,0.527881
19024,NoLoad_Accuracy_Max,200,25,0.88,1807.16,1090.41126339255,80,20,60,NoLoad,Accuracy_Max,22,1767.45454545455,1115.89996681187,3,2098.33333333333,1023.96402931613,1.80716,4.426835476659511,80,2.410318,2.177126,0.432442
19024,NoLoad_Accuracy_Mid,560,28,1,1596.39285714286,1050.75205304778,40,20,60,NoLoad,Accuracy_Mid,28,1596.39285714286,1050.75205304778,0,NA,NA,1.59639285714286,12.528244479742254,40,3.430046,2.778161,0.316669
19024,NoLoad_Neutral,700,37,0.972222222222222,1079.7587719298201,601.195975046665,20,20,60,NoLoad,Neutral,72,1086.54166666667,611.612828315891,2,786,18.3847763108502,1.07975877192982,17.4936192971411,20,2.211841,3.100998,0.455142
19024,NoLoad_Speed_Max,785,43,0.930232558139535,835.720930232558,341.259385050182,5,20,60,NoLoad,Speed_Max,40,839.375,353.661411848634,3,787,52.9150262212918,0.835720930232558,21.844390026714166,5,1.492472,5.2992,0.529129
19024,NoLoad_Speed_Mid,610,38,0.868421052631579,1020.71052631579,552.319331247772,10,20,60,NoLoad,Speed_Mid,33,940.181818181818,414.204165731214,5,1552.2,1021.10317794041,1.02071052631579,15.72691881300435,10,1.748276,3.308094,0.421455
19025,Load_Accuracy_Max,720,51,0.941176470588235,602.666666666667,122.564867179248,80,20,60,Load,Accuracy_Max,48,609.145833333333,123.047645085117,3,499,51.1761663276959,0.602666666666667,23.425299323269062,80,1.068492,4.278147,0.445436
19025,Load_Accuracy_Mid,660,51,0.88235294117647,608.313725490196,239.864669361378,40,20,60,Load,Accuracy_Mid,45,624.4,249.393846975203,6,487.666666666667,90.6568622149844,0.608313725490196,21.27385250128927,40,0.879752,4.204129,0.411476
19025,Load_Neutral,960,54,0.943739279588336,544.51217838765,142.034372765638,20,20,60,Load,Neutral,102,541.705882352941,139.518094801128,6,585.666666666667,286.841884435775,0.54451217838765,32.597197800224656,20,1.177145,4.344381,0.38177
19025,Load_Speed_Max,960,53,0.924528301886792,567.188679245283,116.914672469313,5,20,60,Load,Speed_Max,49,571.163265306122,120.350416655347,4,518.5,41.9960315585493,0.5671886792452829,31.93506536708691,5,0.929619,4.218697,0.433564
19025,Load_Speed_Mid,1000,53,0.962264150943396,553.867924528302,109.754102382737,10,20,60,Load,Speed_Mid,51,553.078431372549,111.505666786447,2,574,62.2253967444162,0.5538679245283019,34.06574689150058,10,0.915965,3.807992,0.4368
19025,NoLoad_Accuracy_Max,660,53,0.924528301886792,591.056603773585,259.117170934038,80,20,60,NoLoad,Accuracy_Max,49,602.326530612245,266.164374944875,4,453,52.9779828482235,0.591056603773585,21.068760773798044,80,0.936158,4.497913,0.408252
19025,NoLoad_Accuracy_Mid,880,56,0.928571428571429,531.071428571429,91.4174952706452,40,20,60,NoLoad,Accuracy_Mid,52,534.711538461538,92.2565341834795,4,483.75,72.8531628231289,0.531071428571429,29.589778076664455,40,0.960275,5.493974,0.429858
19025,NoLoad_Neutral,990,55.5,0.946103896103896,528.474188311688,95.6615516990836,20,20,60,NoLoad,Neutral,105,530.733333333333,106.296597625073,6,486.333333333333,33.368647959824,0.5284741883116879,33.76542551900675,20,0.959961,5.070752,0.406425
19025,NoLoad_Speed_Max,920,56,0.857142857142857,520.75,120.418550367986,5,20,60,NoLoad,Speed_Max,48,522.6875,121.475355393944,8,509.125,121.142699208118,0.52075,31.54790480762635,5,0.614133,3.532206,0.408419
19025,NoLoad_Speed_Mid,1060,56,0.964285714285714,529.875,85.3499880172543,10,20,60,NoLoad,Speed_Mid,54,532.240740740741,86.0168774981706,2,466,7.07106781186548,0.529875,35.722710881946526,10,0.98693,5.593211,0.424983
19026,Load_Accuracy_Max,780,49,0.959183673469388,648.877551020408,266.032707313489,80,20,60,Load,Accuracy_Max,47,654.808510638298,269.962850769434,2,509.5,64.3467170879758,0.648877551020408,24.53215914451963,80,1.621625,4.305535,0.332847
19026,Load_Accuracy_Mid,840,48,0.958333333333333,674.270833333333,263.903168862106,40,20,60,Load,Accuracy_Mid,46,674.95652173913,261.827165768374,2,658.5,433.456456867354,0.674270833333333,25.95396261393479,40,1.515297,6.414497,0.420385
19026,Load_Neutral,900,50,0.949779911964786,628.529411764706,211.058846305806,20,20,60,Load,Neutral,95,623.98947368421,215.095352172742,5,704.2,122.638493141428,0.628529411764706,28.62427142124983,20,1.539808,4.371993,0.365319
19026,Load_Speed_Max,820,51,0.843137254901961,597.21568627451,217.572913178593,5,20,60,Load,Speed_Max,43,608.581395348837,231.919036833171,8,536.125,101.739776601176,0.5972156862745099,26.922319259307905,5,0.701198,3.812127,0.441427
19026,Load_Speed_Mid,950,52,0.942307692307692,584.557692307692,185.424411264023,10,20,60,Load,Speed_Mid,49,584.428571428571,187.546105442546,3,586.666666666667,180.483609597474,0.5845576923076921,31.2530841859394,10,1.465564,4.158762,0.332532
19026,NoLoad_Accuracy_Max,600,50,0.92,656.66,188.424359316075,80,20,60,NoLoad,Accuracy_Max,46,650.130434782609,186.419074929538,4,731.75,224.592037555505,0.65666,18.27429720098682,80,1.595642,3.953666,0.364864
19026,NoLoad_Accuracy_Mid,960,54,0.962962962962963,554.351851851852,155.59104080132,40,20,60,NoLoad,Accuracy_Mid,52,542.884615384615,136.08095252836,2,852.5,392.444263558534,0.554351851851852,32.06948388174377,40,1.561903,6.486486,0.362189
19026,NoLoad_Neutral,910,54.5,0.917508417508417,552.657575757576,134.05332661997,20,20,60,NoLoad,Neutral,100,548.23,132.424467131076,9,600.333333333333,153.934239206227,0.5526575757575759,30.218235364717614,20,1.29296,5.266035,0.38659
19026,NoLoad_Speed_Max,880,54,0.851851851851852,552.814814814815,120.672341967838,5,20,60,NoLoad,Speed_Max,46,556.978260869565,123.085244016844,8,528.875,109.964198719401,0.552814814814815,29.47876189200053,5,1.266201,3.838898,0.347708
19026,NoLoad_Speed_Mid,900,51,0.92156862745098,622.019607843137,229.979259081864,10,20,60,NoLoad,Speed_Mid,47,622.148936170213,227.995230568289,4,620.5,290.602248213373,0.622019607843137,28.37058285786337,10,1.158241,7.2449769999999996,0.442557
19027,Load_Accuracy_Max,960,48,1,676.104166666667,221.079483115485,80,20,60,Load,Accuracy_Max,48,676.104166666667,221.079483115485,0,NA,NA,0.676104166666667,29.58124056327611,80,1.683753,3.208003,0.408837
19027,Load_Accuracy_Mid,820,50,0.94,631.46,228.564572218595,40,20,60,Load,Accuracy_Mid,47,616.659574468085,187.160391178,3,863.333333333333,623.265860875865,0.63146,25.97155797675228,40,1.342321,4.247182,0.393258
19027,Load_Neutral,850,50.5,0.921310832025118,626.1465855573,199.836975896803,20,20,60,Load,Neutral,93,630.612903225806,203.123117102073,8,562.25,178.390222345765,0.6261465855573,26.914517574195923,20,1.326109,4.150255,0.396237
19027,Load_Speed_Max,845,46,0.934782608695652,719.760869565217,324.530237234109,5,20,60,Load,Speed_Max,43,728.186046511628,333.601220151214,3,599,95.9739548002478,0.719760869565217,25.521761454589395,5,1.576569,2.671869,0.347038
19027,Load_Speed_Mid,950,52,0.942307692307692,583.269230769231,143.996339194292,10,20,60,Load,Speed_Mid,49,580.183673469388,145.832048585206,3,633.666666666667,119.542182234278,0.583269230769231,31.322123310253847,10,1.185672,6.198474,0.437045
19027,NoLoad_Accuracy_Max,880,49,0.979591836734694,680.734693877551,225.68403202913,80,20,60,NoLoad,Accuracy_Max,48,682.041666666667,227.884812106144,1,618,NA,0.6807346938775509,26.382060199064654,80,1.666393,3.477588,0.404397
19027,NoLoad_Accuracy_Mid,900,51,0.96078431372549,635.647058823529,158.703852950004,40,20,60,NoLoad,Accuracy_Mid,49,619.489795918367,137.49168496812501,2,1031.5,160.513239329346,0.635647058823529,27.762354247640197,40,1.353318,5.485595,0.459946
19027,NoLoad_Neutral,870,52.5,0.91455007256894,595.384978229318,176.481600540896,20,20,60,NoLoad,Neutral,96,581.0625,148.918261755268,9,747.555555555556,362.376224079033,0.595384978229318,27.850892295053654,20,1.302112,3.942939,0.399087
19027,NoLoad_Speed_Max,990,57,0.894736842105263,512.350877192982,158.940407883412,5,20,60,NoLoad,Speed_Max,51,515.745098039216,165.467319206816,6,483.5,89.5784572316358,0.512350877192982,33.89946582659912,5,1.081112,3.015909,0.316134
19027,NoLoad_Speed_Mid,940,53,0.924528301886792,575.981132075472,143.373971804514,10,20,60,NoLoad,Speed_Mid,49,566.918367346939,120.212457191198,4,687,327.588156074056,0.5759811320754721,30.792413273495548,10,1.231978,3.711438,0.372411
19028,Load_Accuracy_Max,620,36,0.972222222222222,1099.33333333333,302.679840283897,80,20,60,Load,Accuracy_Max,35,1072.22857142857,259.005233391856,1,2048,NA,1.0993333333333302,15.666060238528425,80,2.356907,3.009636,0.636222
19028,Load_Accuracy_Mid,760,38,1,1008.23684210526,263.586227156342,40,20,60,Load,Accuracy_Mid,38,1008.23684210526,263.586227156342,0,NA,NA,1.00823684210526,19.836608983895864,40,2.107825,5.137513,0.713093
19028,Load_Neutral,730,38.5,0.973809523809524,1000.22857142857,368.170830238825,20,20,60,Load,Neutral,75,973.893333333333,405.965834447603,2,1469.5,352.846283812087,1.0002285714285701,18.94804996953081,20,2.460654,3.345574,0.50865
19028,Load_Speed_Max,680,34,1,1198.61764705882,420.304075691375,5,20,60,Load,Speed_Max,34,1198.61764705882,420.304075691375,0,NA,NA,1.19861764705882,16.68588815547327,5,2.757406,2.506706,0.458403
19028,Load_Speed_Mid,750,39,0.974358974358974,970.974358974359,314.636589632806,10,20,60,Load,Speed_Mid,38,961.105263157895,312.68279319582,1,1346,NA,0.970974358974359,19.8056406464561,10,2.446126,3.062898,0.452991
19028,NoLoad_Accuracy_Max,740,47,0.957446808510638,708.148936170213,148.420375186774,80,20,60,NoLoad,Accuracy_Max,45,703.666666666667,142.28811999218,2,809,318.198051533946,0.708148936170213,22.23357269476905,80,1.495157,3.9298670000000002,0.49086
19028,NoLoad_Accuracy_Mid,860,46,0.978260869565217,744.717391304348,185.088406869496,40,20,60,NoLoad,Accuracy_Mid,45,730.533333333333,159.910429473957,1,1383,NA,0.744717391304348,25.10435823335373,40,1.771259,3.649367,0.464357
19028,NoLoad_Neutral,920,50,0.959583833533413,643.945578231293,131.496491937751,20,20,60,NoLoad,Neutral,96,644.28125,135.684285490057,4,623.75,123.721124577279,0.643945578231293,28.547992194976413,20,1.299851,5.20638,0.465329
19028,NoLoad_Speed_Max,980,49,1,664.591836734694,181.399986030795,5,20,60,NoLoad,Speed_Max,49,664.591836734694,181.399986030795,0,NA,NA,0.664591836734694,30.093658836173798,5,1.760151,4.406271,0.411684
19028,NoLoad_Speed_Mid,990,51,0.980392156862745,621.980392156863,105.021424518253,10,20,60,NoLoad,Speed_Mid,50,618.5,103.073829295871,1,796,NA,0.621980392156863,31.209608776520266,10,1.293317,5.460955,0.479601
19029,Load_Accuracy_Max,680,39,0.974358974358974,973.358974358974,608.037848855666,80,20,60,Load,Accuracy_Max,38,984.710526315789,611.997478704166,1,542,NA,0.973358974358974,17.913121361397195,80,1.709599,2.3396,0.481678
19029,Load_Accuracy_Mid,440,40,0.85,928.75,570.989054185805,40,20,60,Load,Accuracy_Mid,34,938.147058823529,600.045914018653,6,875.5,403.305715307879,0.92875,11.843876177658142,40,1.456911,3.180886,0.398975
19029,Load_Neutral,600,42,0.857142857142857,856.154761904762,595.696564418001,20,20,60,Load,Neutral,72,859.166666666667,622.571066139735,12,838.083333333333,404.201448050425,0.856154761904762,16.685901803467875,20,1.684296,4.306337,0.371171
19029,Load_Speed_Max,700,40,0.9,916.55,528.037098055692,5,20,60,Load,Speed_Max,36,915.083333333333,530.642918677765,4,929.75,582.512589277405,0.91655,19.09333915225574,5,1.330029,2.211004,0.437644
19029,Load_Speed_Mid,430,38,0.710526315789474,1009.57894736842,1162.09607063386,10,20,60,Load,Speed_Mid,27,1093.37037037037,1339.43533304001,11,803.909090909091,516.348613737939,1.00957894736842,11.20842456469609,10,1.197712,0.794323,0.324116
19029,NoLoad_Accuracy_Max,380,49,0.877551020408163,674.142857142857,247.111985410124,80,20,60,NoLoad,Accuracy_Max,43,666.53488372093,240.2784445118,6,728.666666666667,311.751610527783,0.674142857142857,11.503647867284197,80,1.255832,3.324352,0.397062
19029,NoLoad_Accuracy_Mid,480,45,0.844444444444444,790.222222222222,493.751726758264,40,20,60,NoLoad,Accuracy_Mid,38,759.842105263158,474.723505661854,7,955.142857142857,600.405537552586,0.7902222222222219,13.498312710911106,40,1.189711,3.033724,0.405955
19029,NoLoad_Neutral,560,49,0.786666666666667,686.01375,294.394820919832,20,20,60,NoLoad,Neutral,77,660.337662337662,265.23612173573,21,777.857142857143,381.655772354393,0.68601375,16.71492250216075,20,1.006218,4.149514,0.412126
19029,NoLoad_Speed_Max,835,53,0.830188679245283,591.77358490566,169.129859246747,5,20,60,NoLoad,Speed_Max,44,585.136363636364,162.620630132246,9,624.222222222222,205.817138364239,0.59177358490566,26.62287973472773,5,1.314598,4.803793,0.386989
19029,NoLoad_Speed_Mid,590,52,0.711538461538462,605.846153846154,191.22088496726,10,20,60,NoLoad,Speed_Mid,37,608.351351351351,212.848043894676,15,599.666666666667,129.028605171028,0.605846153846154,18.727780599288998,10,0.543942,1.805154,0.425478
19030,Load_Accuracy_Max,480,35,0.914285714285714,1160.31428571429,549.220183609482,80,20,60,Load,Accuracy_Max,32,1202.125,555.610489577935,3,714.333333333333,129.27619012538,1.16031428571429,9.84954815197847,80,1.964337,2.855233,0.459317
19030,Load_Accuracy_Mid,300,42,0.785714285714286,868.619047619048,325.015568286104,40,20,60,Load,Accuracy_Mid,33,862.818181818182,342.22858356527,9,889.888888888889,268.794737878388,0.8686190476190481,8.223233375363211,40,1.864559,3.422139,0.474539
19030,Load_Neutral,630,41.5,0.881104651162791,867.666569767442,303.089682406695,20,20,60,Load,Neutral,73,878.328767123288,315.02182705658697,10,773.9,226.540871956181,0.8676665697674419,17.56917527731591,20,1.683386,4.332098,0.501704
19030,Load_Speed_Max,810,48,0.875,675.583333333333,252.179000368687,5,20,60,Load,Speed_Max,42,693.5,260.065493627297,6,550.166666666667,147.020293383827,0.675583333333333,24.978413716541272,5,1.36017,3.508639,0.379868
19030,Load_Speed_Mid,680,43,0.86046511627907,834.023255813954,285.596992812307,10,20,60,Load,Speed_Mid,37,848.459459459459,295.712190651146,6,745,210.926527492395,0.8340232558139541,18.961046203608166,10,1.607031,3.447572,0.445624
19030,NoLoad_Accuracy_Max,440,42,0.904761904761905,878.404761904762,409.998873259832,80,20,60,NoLoad,Accuracy_Max,38,877.815789473684,413.387447034348,4,884,435.516551541577,0.878404761904762,11.926381698425198,80,1.675215,3.012445,0.418028
19030,NoLoad_Accuracy_Mid,920,46,1,751.978260869565,189.749599809906,40,20,60,NoLoad,Accuracy_Mid,46,751.978260869565,189.749599809906,0,NA,NA,0.751978260869565,26.596513543985438,40,1.360833,4.045786,0.537601
19030,NoLoad_Neutral,650,48,0.843030829353018,688.23643074251,184.127055148802,20,20,60,NoLoad,Neutral,81,682.382716049383,170.986005852909,15,716.4,259.280267553968,0.6882364307425101,19.936801600748517,20,1.661255,5.550795,0.424753
19030,NoLoad_Speed_Max,785,51,0.803921568627451,468.529411764706,157.611592586482,5,20,60,NoLoad,Speed_Max,41,472.90243902439,159.698435320771,10,450.6,155.609339908203,0.468529411764706,32.224314710190406,5,0.793791,5.52582,0.354302
19030,NoLoad_Speed_Mid,770,49,0.857142857142857,668.673469387755,196.468762122114,10,20,60,NoLoad,Speed_Mid,42,665.880952380952,177.139493383446,7,685.428571428571,306.591942241832,0.668673469387755,23.500686708377838,10,1.664461,3.660105,0.340725
19031,Load_Accuracy_Max,240,37,0.864864864864865,1034.32432432432,472.169876095343,80,20,60,Load,Accuracy_Max,32,1038.875,497.682872857288,5,1005.2,292.728030772593,1.03432432432432,6.271230729030615,80,1.460406,3.374596,0.5057
19031,Load_Accuracy_Mid,500,43,0.86046511627907,830.232558139535,475.970929344845,40,20,60,Load,Accuracy_Mid,37,841.486486486486,500.053642768099,6,760.833333333333,309.682041240151,0.8302325581395349,14.005602240896371,40,1.723417,2.233009,0.280758
19031,Load_Neutral,790,45.5,0.934719535783366,750.333897485493,376.734341913247,20,20,60,Load,Neutral,85,746.305882352941,371.503541722828,6,789.666666666667,508.301354185356,0.7503338974854931,23.174724598752157,20,1.401899,3.475782,0.401059
19031,Load_Speed_Max,815,47,0.893617021276596,699.872340425532,361.900155400887,5,20,60,Load,Speed_Max,42,696.047619047619,339.146630090157,5,732,570.763961721481,0.699872340425532,24.776554994831887,5,1.415197,4.078583,0.341624
19031,Load_Speed_Mid,730,50,0.82,622.68,198.638574464544,10,20,60,Load,Speed_Mid,41,619.19512195122,197.431661532819,9,638.555555555556,215.484982719859,0.6226799999999999,23.44703539538768,10,1.146304,4.585374,0.396753
19031,NoLoad_Accuracy_Max,220,46,0.847826086956522,740.760869565217,262.149421749642,80,20,60,NoLoad,Accuracy_Max,39,704.666666666667,238.011204218065,7,941.857142857143,317.789987555423,0.740760869565217,6.456346294937667,80,0.981098,4.803238,0.50199
19031,NoLoad_Accuracy_Mid,400,47,0.808510638297872,718.127659574468,357.420566853141,40,20,60,NoLoad,Accuracy_Mid,38,741.973684210526,382.051891681498,9,617.444444444444,213.007694175064,0.718127659574468,11.851149561507432,40,1.055829,2.164067,0.369089
19031,NoLoad_Neutral,740,52,0.855530891601924,606.182204957455,181.482879009883,20,20,60,NoLoad,Neutral,89,610.314606741573,185.551854765577,15,578.066666666667,174.007580568313,0.606182204957455,23.46033180745561,20,1.517773,4.521231,0.342011
19031,NoLoad_Speed_Max,795,56,0.767857142857143,518.178571428571,144.724705077399,5,20,60,NoLoad,Speed_Max,43,535,152.082527721284,13,462.538461538462,103.341356181521,0.518178571428571,27.396788200427352,5,0.655475,5.652565,0.41901
19031,NoLoad_Speed_Mid,460,55,0.563636363636364,454,173.987760318767,10,20,60,NoLoad,Speed_Mid,31,464.645161290323,149.38575308846,24,440.25,203.997069458917,0.454,15.218261914297182,10,0.589951,1.524514,0.308874
19032,Load_Accuracy_Max,500,40,0.925,918.9,421.822407643007,80,20,60,Load,Accuracy_Max,37,931.351351351351,431.947091424158,3,765.333333333333,270.304149678345,0.9188999999999999,13.603221242790298,80,1.636049,2.628121,0.394838
19032,Load_Accuracy_Mid,780,42,0.976190476190476,849.261904761905,432.319499034064,40,20,60,Load,Accuracy_Mid,41,856.536585365854,435.079768408103,1,551,NA,0.849261904761905,21.867728279458337,40,1.741871,2.951838,0.381082
19032,Load_Neutral,710,41.5,0.933333333333333,882.414035087719,311.768624898601,20,20,60,Load,Neutral,77,863.207792207792,312.357350080015,6,1001.16666666667,506.324566524938,0.882414035087719,19.643084361878095,20,2.028018,3.337029,0.429502
19032,Load_Speed_Max,680,39,0.897435897435897,927.102564102564,415.649573741087,5,20,60,Load,Speed_Max,35,904.657142857143,411.759563113143,4,1123.5,457.737552170091,0.927102564102564,18.806870038996593,5,1.760629,3.357628,0.424435
19032,Load_Speed_Mid,760,41,0.951219512195122,894.414634146341,316.955121082603,10,20,60,Load,Speed_Mid,39,892.538461538462,323.529860832354,2,931,195.161471607487,0.8944146341463409,20.724823429958292,10,1.464496,2.500532,0.494215
19032,NoLoad_Accuracy_Max,760,48,0.958333333333333,699.291666666667,279.608081210136,80,20,60,NoLoad,Accuracy_Max,46,693.869565217391,278.072141614418,2,824,403.050865276332,0.699291666666667,22.641959125305316,80,1.406552,3.719134,0.388843
19032,NoLoad_Accuracy_Mid,700,44,0.931818181818182,809.204545454545,296.774644715987,40,20,60,NoLoad,Accuracy_Mid,41,800.292682926829,288.093842688666,3,931,458.013100249327,0.809204545454545,19.660160089875042,40,1.933276,4.312684,0.406445
19032,NoLoad_Neutral,860,49,0.941053511705686,679.09406354515,233.418770171279,20,20,60,NoLoad,Neutral,92,665.760869565217,205.951416951403,6,808,603.364897885185,0.67909406354515,25.97893490060599,20,1.49612,4.024747,0.414039
19032,NoLoad_Speed_Max,940,52,0.923076923076923,613.826923076923,167.66092312548,5,20,60,NoLoad,Speed_Max,48,611.041666666667,171.040863393385,4,647.25,133.908862041813,0.613826923076923,29.44954415865159,5,1.165653,3.301154,0.399311
19032,NoLoad_Speed_Mid,880,50,0.92,652.16,219.797064101764,10,20,60,NoLoad,Speed_Mid,46,648.369565217391,227.252708938324,4,695.75,108.004243743784,0.65216,26.98724239450442,10,1.324387,5.149719,0.421109
19033,Load_Accuracy_Max,380,44,0.886363636363636,791.318181818182,326.565907214389,80,20,60,Load,Accuracy_Max,39,819.025641025641,335.694526489054,5,575.2,100.025996620879,0.791318181818182,10.913895111723773,80,1.456279,2.924505,0.415016
19033,Load_Accuracy_Mid,340,38,0.81578947368421,1020.36842105263,416.474548786152,40,20,60,Load,Accuracy_Mid,31,996.129032258065,420.258154149366,7,1127.71428571429,412.372289032501,1.02036842105263,8.76876257285808,40,1.620844,1.156126,0.520915
19033,Load_Neutral,540,39,0.847066578773896,956.821028345419,948.609649525213,20,20,60,Load,Neutral,66,1001.80303030303,1070.90765557069,12,688,148.625215039221,0.956821028345419,14.50915347770148,20,1.307707,1.719582,0.36342
19033,Load_Speed_Max,720,41,0.902439024390244,877.170731707317,451.908890288686,5,20,60,Load,Speed_Max,37,857.864864864865,407.496364139346,4,1055.75,826.558074184748,0.8771707317073171,20.02002002002002,5,1.816885,3.150092,0.400689
19033,Load_Speed_Mid,670,41,0.878048780487805,881.09756097561,576.126019412335,10,20,60,Load,Speed_Mid,36,845.166666666667,567.479112265062,5,1139.8,637.298360267779,0.88109756097561,18.546712802768162,10,1.80992,3.311069,0.371455
19033,NoLoad_Accuracy_Max,240,38,0.868421052631579,1044.21052631579,691.376424161399,80,20,60,NoLoad,Accuracy_Max,33,1060.42424242424,721.964898311503,5,937.2,484.936284474569,1.0442105263157901,6.552419354838708,80,1.595911,2.529602,0.421588
19033,NoLoad_Accuracy_Mid,580,43,0.906976744186046,835.395348837209,864.60183898593,40,20,60,NoLoad,Accuracy_Mid,39,827.102564102564,897.83466989582,4,916.25,495.185066414568,0.835395348837209,17.259618061355127,40,1.709059,5.546903,0.363941
19033,NoLoad_Neutral,610,46.5,0.829777365491651,738.10667903525,328.156146073867,20,20,60,NoLoad,Neutral,77,762.831168831169,360.494594550226,16,596.3125,145.329840363223,0.73810667903525,17.87152859381736,20,1.308352,2.341688,0.387912
19033,NoLoad_Speed_Max,715,47,0.808510638297872,738.914893617021,526.924333722604,5,20,60,NoLoad,Speed_Max,38,684.236842105263,479.854281609477,9,969.777777777778,676.290761761865,0.738914893617021,20.587981226064663,5,0.977321,3.962333,0.447367
19033,NoLoad_Speed_Mid,730,47,0.851063829787234,729.234042553191,497.19308701191,10,20,60,NoLoad,Speed_Mid,40,712.8,470.876770857656,7,823.142857142857,664.760214556454,0.729234042553191,21.298943805800327,10,0.77137,3.226826,0.491402
19034,Load_Accuracy_Max,580,40,0.95,943.125,190.596928366026,80,20,60,Load,Accuracy_Max,38,931.447368421053,174.81367646547,2,1165,427.092495836675,0.943125,15.904572564612323,80,1.465248,3.216166,0.643145
19034,Load_Accuracy_Mid,680,37,0.972972972972973,1039.97297297297,331.305287753899,40,20,60,Load,Accuracy_Mid,36,1024.69444444444,322.51430262366,1,1590,NA,1.0399729729729699,17.67197692247725,40,1.494367,3.059761,0.642685
19034,Load_Neutral,730,43.5,0.91984126984127,808.829365079365,187.987869278556,20,20,60,Load,Neutral,80,801.2875,193.422878606318,7,874.285714285714,189.448070532723,0.808829365079365,20.762909358518346,20,1.300586,3.169349,0.554809
19034,Load_Speed_Max,915,52,0.903846153846154,572.269230769231,134.126822540784,5,20,60,Load,Speed_Max,47,563.127659574468,128.703842215083,5,658.2,169.312433093379,0.572269230769231,30.748034142079437,5,0.778164,4.350823,0.443577
19034,Load_Speed_Mid,830,49,0.897959183673469,653.183673469388,138.443079980755,10,20,60,Load,Speed_Mid,44,649.25,139.671229412436,5,687.8,136.448525092798,0.6531836734693881,25.932637630444265,10,0.684377,4.641713,0.53083
19034,NoLoad_Accuracy_Max,840,42,1,880.928571428571,139.613646837533,80,20,60,NoLoad,Accuracy_Max,42,880.928571428571,139.613646837533,0,NA,NA,0.880928571428571,22.703316305846116,80,1.234765,5.726463,0.710616
19034,NoLoad_Accuracy_Mid,740,46,0.934782608695652,755.608695652174,141.241869502223,40,20,60,NoLoad,Accuracy_Mid,43,761.511627906977,141.281949120497,3,671,134.903669334826,0.755608695652174,21.29006271937394,40,0.990032,4.244799,0.609234
19034,NoLoad_Neutral,900,48,0.968519322622666,708.935301780287,105.121859331025,20,20,60,NoLoad,Neutral,93,709.344086021505,108.576610362939,3,681,32.1869538788622,0.708935301780287,26.43509620390547,20,1.181523,5.594113,0.550638
19034,NoLoad_Speed_Max,1020,56,0.928571428571429,528.589285714286,61.6638325662073,5,20,60,NoLoad,Speed_Max,52,529.346153846154,61.959153089626,4,518.75,65.6524942405085,0.528589285714286,34.45829532786055,5,0.717805,5.848829,0.458942
19034,NoLoad_Speed_Mid,930,51,0.941176470588235,634.254901960784,114.07906786738,10,20,60,NoLoad,Speed_Mid,48,621.958333333333,92.2568012446049,3,831,252.275642898794,0.6342549019607839,28.750734225739635,10,0.784642,5.928007,0.535459
19035,Load_Accuracy_Max,700,45,0.955555555555556,768.533333333333,239.203184837417,80,20,60,Load,Accuracy_Max,43,770.697674418605,244.306358695849,2,722,79.1959594928933,0.768533333333333,20.240573675688253,80,1.669172,3.438418,0.440398
19035,Load_Accuracy_Mid,580,41,0.902439024390244,877.560975609756,550.682533261247,40,20,60,Load,Accuracy_Mid,37,868.837837837838,570.857275094685,4,958.25,350.990384483678,0.877560975609756,16.1200667037243,40,1.22794,2.199746,0.572354
19035,Load_Neutral,860,46,0.967391304347826,727.663043478261,266.314524727301,20,20,60,Load,Neutral,89,728.910112359551,269.640401968716,3,690.666666666667,87.460467259976,0.7276630434782609,25.692732840391358,20,1.636974,3.383505,0.380286
19035,Load_Speed_Max,915,47,0.978723404255319,699.212765957447,354.033033104454,5,20,60,Load,Speed_Max,46,706.630434782609,354.233278987208,1,358,NA,0.699212765957447,27.842862794023663,5,1.52933,3.919864,0.313509
19035,Load_Speed_Mid,820,47,0.914893617021277,712.936170212766,307.511357461188,10,20,60,Load,Speed_Mid,43,726.255813953488,318.355752864715,4,569.75,34.4226185329743,0.712936170212766,24.4717679360153,10,1.160313,3.054616,0.424612
19035,NoLoad_Accuracy_Max,940,47,1,713.978723404255,265.264141479501,80,20,60,NoLoad,Accuracy_Max,47,713.978723404255,265.264141479501,0,NA,NA,0.713978723404255,28.01203921685492,80,1.790669,4.187486,0.372609
19035,NoLoad_Accuracy_Mid,780,45,0.955555555555555,778.888888888889,250.802097118808,40,20,60,NoLoad,Accuracy_Mid,43,764.720930232558,218.448133277553,2,1083.5,754.482935526046,0.7788888888888891,22.25392296718968,40,1.661378,3.589799,0.442404
19035,NoLoad_Neutral,790,51.5,0.883295625942685,615.448152337858,196.070164421304,20,20,60,NoLoad,Neutral,91,619.912087912088,197.167534421965,12,580.5,190.89716412961,0.615448152337858,24.9116436201287,20,1.260469,3.711073,0.353026
19035,NoLoad_Speed_Max,955,54,0.907407407407407,561.166666666667,129.389969282566,5,20,60,NoLoad,Speed_Max,49,571.244897959184,130.726420852265,5,462.4,57.6003472211757,0.5611666666666669,31.515031515031477,5,1.007932,4.65794,0.419726
19035,NoLoad_Speed_Mid,800,49,0.877551020408163,665.836734693878,311.396742311876,10,20,60,NoLoad,Speed_Mid,43,684.232558139535,326.920904749678,6,534,96.7243506052121,0.665836734693878,24.520321216207904,10,1.088861,3.39812,0.414828
19036,Load_Accuracy_Max,460,43,0.906976744186047,828.06976744186,237.477256590107,80,20,60,Load,Accuracy_Max,39,800.076923076923,220.866163882515,4,1101,249.248202935681,0.82806976744186,12.91880809953106,80,1.246101,3.871869,0.603054
19036,Load_Accuracy_Mid,760,41,0.975609756097561,899.341463414634,271.201365202694,40,20,60,Load,Accuracy_Mid,40,878.525,239.19490899093,1,1732,NA,0.899341463414634,20.611287391858543,40,1.650626,3.706887,0.598343
19036,Load_Neutral,670,41.5,0.90472027972028,859.619172494173,297.297408327878,20,20,60,Load,Neutral,75,856.133333333333,318.341238522665,8,848.375,175.443061581651,0.859619172494173,18.83253853196363,20,1.658014,4.225982,0.523385
19036,Load_Speed_Max,805,49,0.857142857142857,647.673469387755,228.87846008263,5,20,60,Load,Speed_Max,42,639.666666666667,229.935056225232,7,695.714285714286,233.799568210119,0.6476734693877549,25.365515502898916,5,0.985356,3.898866,0.452431
19036,Load_Speed_Mid,940,47,1,714.042553191489,307.115114903248,10,20,60,Load,Speed_Mid,47,714.042553191489,307.115114903248,0,NA,NA,0.714042553191489,28.009535160905855,10,1.89326,4.897114,0.378616
19036,NoLoad_Accuracy_Max,740,47,0.957446808510638,717.468085106383,164.905091421364,80,20,60,NoLoad,Accuracy_Max,45,722.622222222222,166.699551301257,2,601.5,10.6066017177982,0.717468085106383,21.944782183209234,80,1.004024,4.311953,0.542794
19036,NoLoad_Accuracy_Mid,760,44,0.954545454545455,805.863636363636,261.699773920786,40,20,60,NoLoad,Accuracy_Mid,42,798.738095238095,264.636709980785,2,955.5,163.341666454092,0.805863636363636,21.433809013480783,40,1.609167,3.460388,0.477588
19036,NoLoad_Neutral,820,46,0.945390070921986,754.245862884161,238.771743388599,20,20,60,NoLoad,Neutral,87,735.770114942529,226.937482485735,5,1065.6,253.306731059402,0.7542458628841611,23.62041837227234,20,1.649291,3.859158,0.485046
19036,NoLoad_Speed_Max,890,52,0.884615384615385,611.019230769231,109.912708748783,5,20,60,NoLoad,Speed_Max,46,601.065217391304,112.153942254764,6,687.333333333333,46.0159392674611,0.6110192307692309,28.01120448179273,5,0.854735,4.58511,0.506841
19036,NoLoad_Speed_Mid,900,48,0.958333333333333,697.5,175.861889718379,10,20,60,NoLoad,Speed_Mid,46,677.282608695652,120.528772598723,2,1162.5,590.434162290767,0.6975,26.881720430107517,10,1.477832,4.695577,0.493383
19037,Load_Accuracy_Max,780,44,0.977272727272727,802.613636363636,410.055368689547,80,20,60,Load,Accuracy_Max,43,793.023255813953,409.88485539769,1,1215,NA,0.802613636363636,22.08693189862662,80,2.15024,5.63842,0.35928
19037,Load_Accuracy_Mid,740,43,0.953488372093023,825.255813953488,465.737566253953,40,20,60,Load,Accuracy_Mid,41,786.682926829268,354.378289333897,2,1616,1665.94357647551,0.825255813953488,20.853294256890027,40,1.775659,3.922775,0.352241
19037,Load_Neutral,760,46,0.914772727272727,734.439393939394,278.446487100797,20,20,60,Load,Neutral,84,711.571428571429,246.443780617737,8,945.75,533.252754329502,0.734439393939394,22.58989540568975,20,1.596479,3.638267,0.404009
19037,Load_Speed_Max,915,47,0.978723404255319,716.255319148936,281.120078636151,5,20,60,Load,Speed_Max,46,719.695652173913,283.224360970844,1,558,NA,0.716255319148936,27.180370722433462,5,1.525985,5.252653,0.422715
19037,Load_Speed_Mid,880,50,0.92,641.18,137.400604519955,10,20,60,Load,Speed_Mid,46,636.54347826087,138.617412169329,4,694.5,126.545117119021,0.64118,27.44939018684301,10,1.397486,4.769404,0.435285
19037,NoLoad_Accuracy_Max,640,47,0.936170212765957,728.702127659574,307.262380080553,80,20,60,NoLoad,Accuracy_Max,44,729.75,310.144986725076,3,713.333333333333,320.893024750201,0.728702127659574,18.686676983269535,80,1.522761,5.563711,0.446696
19037,NoLoad_Accuracy_Mid,760,47,0.936170212765957,734.510638297872,409.39164157163,40,20,60,NoLoad,Accuracy_Mid,44,732.431818181818,407.664556457839,3,765,529.388326278546,0.734510638297872,22.014946990324983,40,1.518119,3.565923,0.401713
19037,NoLoad_Neutral,930,51.5,0.951546003016591,611.328996983409,211.912914398054,20,20,60,NoLoad,Neutral,98,612.928571428571,210.51366975719,5,578.4,248.91524662021,0.6113289969834089,29.545204316807215,20,1.662484,4.110968,0.322741
19037,NoLoad_Speed_Max,810,53,0.811320754716981,582.830188679245,172.110511886656,5,20,60,NoLoad,Speed_Max,43,608.837209302326,178.65648472665,10,471,71.2117343638751,0.582830188679245,26.22207834250567,5,0.799421,4.432916,0.436888
19037,NoLoad_Speed_Mid,780,51,0.843137254901961,636.078431372549,159.724493192153,10,20,60,NoLoad,Speed_Mid,43,625.813953488372,148.604341379567,8,691.25,213.54741862172,0.6360784313725489,24.044389642416782,10,1.300247,4.866583,0.433728
19038,Load_Accuracy_Max,620,41,0.951219512195122,877.926829268293,425.654577694397,80,20,60,Load,Accuracy_Max,39,865.48717948718,426.155078753144,2,1120.5,471.640223051427,0.877926829268293,17.224614529795808,80,1.954741,3.042491,0.401842
19038,Load_Accuracy_Mid,580,41,0.902439024390244,897.268292682927,504.172045257878,40,20,60,Load,Accuracy_Mid,37,778.45945945946,345.224934289595,4,1996.25,417.839981332567,0.8972682926829271,15.766010655648586,40,2.141365,3.543261,0.328764
19038,Load_Neutral,690,38.5,0.947332421340629,1014.15526675787,497.359185810838,20,20,60,Load,Neutral,73,977.849315068493,533.431570932561,4,1248,929.166292974514,1.01415526675787,17.64354772896643,20,2.063876,2.458083,0.390093
19038,Load_Speed_Max,800,45,0.911111111111111,753.222222222222,345.715127662863,5,20,60,Load,Speed_Max,41,772.634146341463,353.497719660082,4,554.25,169.900706296354,0.7532222222222219,23.60230122436938,5,1.521708,2.807429,0.387568
19038,Load_Speed_Mid,800,43,0.953488372093023,822.790697674419,465.986692950179,10,20,60,Load,Speed_Mid,41,825.09756097561,473.913378418359,2,775.5,362.745778748699,0.822790697674419,22.61164499717352,10,1.867824,2.71691,0.355157
19038,NoLoad_Accuracy_Max,520,46,0.91304347826087,761.782608695652,270.957062038617,80,20,60,NoLoad,Accuracy_Max,42,757.595238095238,273.078391275563,4,805.75,281.59353093895197,0.7617826086956521,14.83933565435768,80,1.59686,2.806614,0.419716
19038,NoLoad_Accuracy_Mid,780,48,0.9375,710.458333333333,289.982168074898,40,20,60,NoLoad,Accuracy_Mid,45,680.555555555556,173.728701187114,3,1159,995.091453083585,0.7104583333333331,22.872558794205627,40,1.641153,2.749393,0.41675
19038,NoLoad_Neutral,810,44.5,0.952997967479675,798.35950203252,304.066115479762,20,20,60,NoLoad,Neutral,85,770.929411764706,292.571106059434,4,1196.25,749.237112001268,0.79835950203252,22.6964402040134,20,1.88781,2.887129,0.385723
19038,NoLoad_Speed_Max,925,50,0.94,639.96,134.383241180603,5,20,60,NoLoad,Speed_Max,47,629.170212765957,115.2760994024,3,809,302.004966846574,0.6399600000000001,28.908056753547086,5,1.331987,5.679369,0.488442
19038,NoLoad_Speed_Mid,920,49,0.959183673469388,664.163265306122,196.551874719582,10,20,60,NoLoad,Speed_Mid,47,669.957446808511,198.666528268375,2,528,12.7279220613579,0.6641632653061219,28.269419862340254,10,1.14194,4.271384,0.461401
19039,Load_Accuracy_Max,860,43,1,787.395348837209,353.466246757592,80,20,60,Load,Accuracy_Max,43,787.395348837209,353.466246757592,0,NA,NA,0.787395348837209,25.400200838797343,80,1.90011,3.539113,0.365119
19039,Load_Accuracy_Mid,840,45,0.977777777777778,748.844444444444,324.158417749686,40,20,60,Load,Accuracy_Mid,44,753.022727272727,326.677957388545,1,565,NA,0.748844444444444,24.927295388450386,40,1.8117780000000001,3.359247,0.367624
19039,Load_Neutral,740,39,0.973737373737374,1000.69191919192,486.413495561152,20,20,60,Load,Neutral,76,956.592105263158,534.470109613414,2,1251,954.594154601839,1.00069191919192,18.93639249610118,20,2.287905,3.137541,0.392108
19039,Load_Speed_Max,905,54,0.87037037037037,534.166666666667,209.141980301728,5,20,60,Load,Speed_Max,47,540.212765957447,200.408814369443,7,493.571428571429,276.120660305634,0.534166666666667,31.374588316865974,5,1.108191,3.766555,0.304737
19039,Load_Speed_Mid,1020,54,0.962962962962963,539.37037037037,217.578812118458,10,20,60,Load,Speed_Mid,52,545.423076923077,219.22835673833401,2,382,80.6101730552664,0.53937037037037,35.020256815216676,10,1.757781,5.839911,0.35595
19039,NoLoad_Accuracy_Max,840,47,0.978723404255319,736.234042553191,329.53123575414,80,20,60,NoLoad,Accuracy_Max,46,721.934782608696,318.088625118774,1,1394,NA,0.736234042553191,24.275351848105654,80,1.915122,3.771545,0.359682
19039,NoLoad_Accuracy_Mid,920,49,0.979591836734694,674.102040816327,253.898293687482,40,20,60,NoLoad,Accuracy_Mid,48,657.979166666667,229.842359444545,1,1448,NA,0.674102040816327,27.852623293269946,40,1.741579,5.058602,0.359765
19039,NoLoad_Neutral,960,51,0.971698113207547,625.485752791683,230.15226401969,20,20,60,NoLoad,Neutral,99,624.262626262626,242.358209582873,3,589,141.446102809515,0.6254857527916831,30.165234690142984,20,1.815383,3.895912,0.300352
19039,NoLoad_Speed_Max,1015,57,0.912280701754386,497.877192982456,112.411881390244,5,20,60,NoLoad,Speed_Max,52,504.826923076923,112.25893058563,5,425.6,95.266993234803,0.497877192982456,35.76588322351036,5,1.106252,4.782501,0.319258
19039,NoLoad_Speed_Mid,950,58,0.879310344827586,485.327586206897,115.35564958994,10,20,60,NoLoad,Speed_Mid,51,492.529411764706,116.886158794132,7,432.857142857143,94.3917873748004,0.48532758620689703,33.748978649330304,10,0.871277,6.334355,0.382171
19040,Load_Accuracy_Max,500,50,0.9,642.12,289.7875111744,80,20,60,Load,Accuracy_Max,45,648.711111111111,298.235692503141,5,582.8,213.163552231614,0.64212,15.57341306920825,80,1.125681,4.339861,0.413706
19040,Load_Accuracy_Mid,860,46,0.978260869565217,743.95652173913,341.564046801816,40,20,60,Load,Accuracy_Mid,45,752.533333333333,340.377370789326,1,358,NA,0.7439565217391301,25.1300333119046,40,1.9446,2.86625,0.275614
19040,Load_Neutral,910,49.5,0.96,652.125918367347,260.367349052724,20,20,60,Load,Neutral,95,653.178947368421,258.696403800489,4,623.75,329.137635850617,0.652125918367347,28.21540975716158,20,1.747051,3.423864,0.351714
19040,Load_Speed_Max,1015,52,0.980769230769231,589.326923076923,195.161945940514,5,20,60,Load,Speed_Max,51,593.647058823529,194.57654776765,1,369,NA,0.589326923076923,33.12122695382608,5,1.683091,3.764682,0.304051
19040,Load_Speed_Mid,870,51,0.901960784313726,598.764705882353,223.663013324536,10,20,60,Load,Speed_Mid,46,594.260869565217,204.837109787005,5,640.2,388.464541496389,0.5987647058823531,28.490028490028507,10,1.183819,4.206589,0.363094
19040,NoLoad_Accuracy_Max,520,51,0.901960784313726,625.647058823529,181.505903323216,80,20,60,NoLoad,Accuracy_Max,46,627.826086956522,170.475583699488,5,605.6,290.346861529447,0.625647058823529,16.296853453679415,80,1.194975,3.839092,0.40673
19040,NoLoad_Accuracy_Mid,820,47,0.957446808510638,715.531914893617,263.011642250485,40,20,60,NoLoad,Accuracy_Mid,45,711.355555555556,268.119135287041,2,809.5,23.3345237791561,0.715531914893617,24.38299137674693,40,1.584368,2.887526,0.391009
19040,NoLoad_Neutral,780,51,0.882307692307692,634.252692307692,200.091861317674,20,20,60,NoLoad,Neutral,90,640.655555555556,199.523092133797,12,583.083333333333,213.557085548288,0.634252692307692,24.110749355540765,20,1.151656,3.616229,0.400443
19040,NoLoad_Speed_Max,880,54,0.851851851851852,569.962962962963,234.528749733231,5,20,60,NoLoad,Speed_Max,46,589.760869565217,244.58610706276,8,456.125,120.409346457348,0.569962962962963,28.591851322373124,5,1.048087,4.631824,0.364797
19040,NoLoad_Speed_Mid,890,49,0.938775510204082,674.836734693878,252.12780711863,10,20,60,NoLoad,Speed_Mid,46,665.282608695652,236.02397835281,3,821.333333333333,487.787180370019,0.6748367346938781,26.915051259563914,10,1.588918,5.096393,0.377088
19041,Load_Accuracy_Max,720,41,0.975609756097561,894.048780487805,375.001663410945,80,20,60,Load,Accuracy_Max,40,887.75,377.576057883944,1,1146,NA,0.8940487804878049,19.642077695329547,80,2.0443,3.060755,0.352214
19041,Load_Accuracy_Mid,760,47,0.936170212765957,710.978723404255,223.70307274344,40,20,60,Load,Accuracy_Mid,44,710.863636363636,224.536068569829,3,712.666666666667,258.906031859695,0.7109787234042549,22.743595882212087,40,1.325078,4.102816,0.444403
19041,Load_Neutral,830,47.5,0.940925426774483,714.047619047619,277.003756135227,20,20,60,Load,Neutral,89,692.191011235955,312.79694533226,6,774.166666666667,398.204679363097,0.714047619047619,24.70005725178831,20,1.281735,4.946481,0.416721
19041,Load_Speed_Max,940,52,0.923076923076923,580.442307692308,180.886749692115,5,20,60,Load,Speed_Max,48,595.604166666667,175.597065305692,4,398.5,159.228347559933,0.580442307692308,31.143358844382583,5,1.945901,4.919435,0.288815
19041,Load_Speed_Mid,570,39,0.820512820512821,961.051282051282,367.673621623563,10,20,60,Load,Speed_Mid,32,943,398.117343700119,7,1043.57142857143,166.06911928758,0.961051282051282,15.207705237320258,10,1.690636,2.677135,0.459837
19041,NoLoad_Accuracy_Max,760,48,0.958333333333333,677.979166666667,219.65587104468,80,20,60,NoLoad,Accuracy_Max,46,677.934782608696,223.644499862708,2,679,130.107647738325,0.677979166666667,23.35371662108589,80,1.429989,3.909434,0.41352
19041,NoLoad_Accuracy_Mid,960,51,0.980392156862745,620.627450980392,170.482721797174,40,20,60,NoLoad,Accuracy_Mid,50,623,171.360939039711,1,502,NA,0.6206274509803921,30.329836977126234,40,1.124825,4.38919,0.429069
19041,NoLoad_Neutral,860,53,0.906339031339031,580.367521367521,168.894352445832,20,20,60,NoLoad,Neutral,96,587.625,171.088727365595,10,506.4,175.453824251409,0.580367521367521,28.005635489840902,20,1.087942,5.683184,0.432786
19041,NoLoad_Speed_Max,975,55,0.909090909090909,537.072727272727,138.726730387138,5,20,60,NoLoad,Speed_Max,50,554.5,132.634721652194,5,362.8,50.46979294588,0.5370727272727269,33.00721080605303,5,1.21655,5.963354,0.413282
19041,NoLoad_Speed_Mid,890,55,0.872727272727273,544.854545454545,141.870104670881,10,20,60,NoLoad,Speed_Mid,48,540.791666666667,131.587032655656,7,572.714285714286,210.882047825883,0.544854545454545,29.699335936196523,10,0.967506,4.317585,0.368797
19042,Load_Accuracy_Max,340,27,0.925925925925926,1658.40740740741,672.603281131734,80,20,60,Load,Accuracy_Max,25,1671.08,698.238075444185,2,1500,84.8528137423857,1.65840740740741,7.593184000714647,80,2.091027,1.668702,0.862808
19042,Load_Accuracy_Mid,780,39,1,973.410256410256,297.631502820157,40,20,60,Load,Accuracy_Mid,39,973.410256410256,297.631502820157,0,NA,NA,0.973410256410256,20.546321418223016,40,2.284146,2.985224,0.456522
19042,Load_Neutral,780,43,0.954004329004329,816.576298701299,302.985225485413,20,20,60,Load,Neutral,82,808.378048780488,302.696427001712,4,973.75,275.007121119921,0.816576298701299,22.239407620641817,20,1.687448,3.031431,0.418152
19042,Load_Speed_Max,815,42,0.976190476190476,834.880952380952,439.731137499809,5,20,60,Load,Speed_Max,41,835.609756097561,445.168163621837,1,805,NA,0.834880952380952,23.242549550834173,5,1.962405,3.391945,0.322586
19042,Load_Speed_Mid,730,41,0.926829268292683,889.414634146341,264.412554127991,10,20,60,Load,Speed_Mid,38,876.473684210526,267.89507192002,3,1053.33333333333,164.591413303773,0.8894146341463409,20.018647507267058,10,1.540254,2.90078,0.522581
19042,NoLoad_Accuracy_Max,800,40,1,925.075,304.090774866608,80,20,60,NoLoad,Accuracy_Max,40,925.075,304.090774866608,0,NA,NA,0.9250750000000001,21.619868659297893,80,2.036604,2.782616,0.4639
19042,NoLoad_Accuracy_Mid,720,45,0.933333333333333,781.488888888889,236.855884666204,40,20,60,NoLoad,Accuracy_Mid,42,756.928571428571,211.986584119585,3,1125.33333333333,350.669835220159,0.781488888888889,20.473739585406747,40,1.449612,4.491462,0.513874
19042,NoLoad_Neutral,850,45.5,0.967538759689923,773.736918604651,307.015917883289,20,20,60,NoLoad,Neutral,88,772.363636363636,323.367737776824,3,678,93.0644937664199,0.773736918604651,24.170425293035127,20,1.728957,3.065294,0.446513
19042,NoLoad_Speed_Max,965,52,0.942307692307692,601.807692307692,141.579332498245,5,20,60,NoLoad,Speed_Max,49,611.489795918367,139.250392346691,3,443.666666666667,77.1643268183772,0.601807692307692,30.83658209241388,5,1.440867,5.613934,0.417672
19042,NoLoad_Speed_Mid,990,51,0.980392156862745,637.392156862745,125.194581101799,10,20,60,NoLoad,Speed_Mid,50,637.54,126.461127366056,1,630,NA,0.637392156862745,30.45497892761559,10,1.318794,5.210702,0.483382
19043,Load_Accuracy_Max,720,36,1,1080.94444444444,530.77630178794,80,20,60,Load,Accuracy_Max,36,1080.94444444444,530.77630178794,0,NA,NA,1.08094444444444,18.502338490003673,80,2.046763,2.7625,0.579676
19043,Load_Accuracy_Mid,740,37,1,1048.94594594595,516.675480889651,40,20,60,Load,Accuracy_Mid,37,1048.94594594595,516.675480889651,0,NA,NA,1.0489459459459498,19.066759423874604,40,2.234952,2.131877,0.463443
19043,Load_Neutral,570,32.5,0.93844696969697,1265.99715909091,829.293721412976,20,20,60,Load,Neutral,61,1230.27868852459,761.627952287019,4,1805.75,1568.96173205935,1.2659971590909098,13.853015910772214,20,1.984034,1.699026,0.545698
19043,Load_Speed_Max,760,38,1,1015.89473684211,479.804565477061,5,20,60,Load,Speed_Max,38,1015.89473684211,479.804565477061,0,NA,NA,1.01589473684211,19.68707905916476,5,2.6536,2.413644,0.286375
19043,Load_Speed_Mid,650,37,0.918918918918919,1046.08108108108,466.532920023299,10,20,60,Load,Speed_Mid,34,980.264705882353,364.178054089224,3,1792,906.199205473057,1.0460810810810799,16.793695904921865,10,2.181331,1.891649,0.46457
19043,NoLoad_Accuracy_Max,660,43,0.953488372093023,848.116279069767,528.582210090276,80,20,60,NoLoad,Accuracy_Max,41,832.536585365854,527.22140024666,2,1167.5,634.274782724333,0.8481162790697669,18.097562313197486,80,1.706149,3.175804,0.537853
19043,NoLoad_Accuracy_Mid,620,37,0.945945945945946,1073.10810810811,1458.48328341054,40,20,60,NoLoad,Accuracy_Mid,35,1081.22857142857,1500.0846659579,2,931,164.048773235279,1.07310810810811,15.615161818410757,40,3.044057,4.380964,0.317062
19043,NoLoad_Neutral,790,42.5,0.96483942414175,865.25415282392,454.802789099886,20,20,60,NoLoad,Neutral,82,860.865853658537,459.197683625248,3,977.666666666667,486.301689626237,0.8652541528239199,21.489150794580244,20,1.763819,2.873791,0.478223
19043,NoLoad_Speed_Max,765,42,0.928571428571429,845.142857142857,349.833170792536,5,20,60,NoLoad,Speed_Max,39,853.435897435897,360.964774113967,3,737.333333333333,120.271914150118,0.845142857142857,21.551724137931053,5,1.709652,2.415418,0.403729
19043,NoLoad_Speed_Mid,700,41,0.902439024390244,906.439024390244,643.2788683293,10,20,60,NoLoad,Speed_Mid,37,936.459459459459,670.725212595151,4,628.75,70.9806311609019,0.9064390243902439,18.835432138628786,10,0.938505,3.011671,0.516972
19044,Load_Accuracy_Max,720,51,0.941176470588235,608.117647058824,237.927942626235,80,20,60,Load,Accuracy_Max,48,611.1875,241.036296044057,3,559,214.669513438681,0.608117647058824,23.21532211259424,80,1.328341,4.519526,0.36732
19044,Load_Accuracy_Mid,860,49,0.959183673469388,651.163265306122,278.707608655467,40,20,60,Load,Accuracy_Mid,47,632.574468085106,226.055374582044,2,1088,989.949493661167,0.651163265306122,26.95333312439281,40,1.52384,4.301059,0.366063
19044,Load_Neutral,840,46,0.956028368794326,721.422458628842,373.94768981764,20,20,60,Load,Neutral,88,726.125,389.516936686349,4,605,274.499544626216,0.721422458628842,25.28495548425635,20,1.674092,2.70671,0.309633
19044,Load_Speed_Max,925,55,0.872727272727273,515.236363636364,129.577370514666,5,20,60,Load,Speed_Max,48,526.229166666667,131.329249968022,7,439.857142857143,91.7195518440654,0.5152363636363639,32.64168254640412,5,0.885086,6.194592,0.413337
19044,Load_Speed_Mid,750,42,0.928571428571429,857.738095238095,306.272161728653,10,20,60,Load,Speed_Mid,39,859.615384615385,315.425828747894,3,833.333333333333,177.809823500653,0.857738095238095,20.818875780707867,10,1.778503,2.765644,0.463788
19044,NoLoad_Accuracy_Max,700,55,0.927272727272727,540.545454545455,117.298419392246,80,20,60,NoLoad,Accuracy_Max,51,547.980392156863,118.538177849346,4,445.75,23.4716140618123,0.540545454545455,23.54524049781359,80,1.086382,4.821904,0.418863
19044,NoLoad_Accuracy_Mid,720,57,0.87719298245614,505.754385964912,111.103761139524,40,20,60,NoLoad,Accuracy_Mid,50,507.4,113.748917913669,7,494,96.7488156688925,0.505754385964912,24.975718051893967,40,0.782651,6.440181,0.413563
19044,NoLoad_Neutral,850,57,0.86979969183359,491.84560862866,173.593010992818,20,20,60,NoLoad,Neutral,99,503.909090909091,180.485009322053,15,398.066666666667,178.677069704244,0.49184560862866,30.074453067876114,20,1.115968,4.521447,0.310414
19044,NoLoad_Speed_Max,755,56,0.732142857142857,480.571428571429,166.061747239103,5,20,60,NoLoad,Speed_Max,41,512.829268292683,157.167888329491,15,392.4,162.428357833758,0.480571428571429,27.682818073721727,5,1.047533,4.960551,0.31424
19044,NoLoad_Speed_Mid,1010,55,0.945454545454545,550.127272727273,156.310002351151,10,20,60,NoLoad,Speed_Mid,52,540.230769230769,127.734960802285,3,721.666666666667,443.776219882649,0.5501272727272729,33.380705291337506,10,1.170353,4.16555,0.362082
19045,Load_Accuracy_Max,500,40,0.925,936.425,354.173641861931,80,20,60,Load,Accuracy_Max,37,900.378378378378,338.83578055776,3,1381,242.851806664064,0.936425,13.348639773607074,80,1.633627,2.443089,0.510031
19045,Load_Accuracy_Mid,620,46,0.891304347826087,735.45652173913,327.598989723157,40,20,60,Load,Accuracy_Mid,41,717.073170731707,307.686072990305,5,886.2,478.316526998597,0.73545652173913,18.32638704147086,40,1.012266,3.283105,0.419034
19045,Load_Neutral,810,41.5,0.989130434782609,894.6589306698,325.320398384231,20,20,60,Load,Neutral,82,881.231707317073,358.417760899084,1,584,NA,0.8946589306698001,21.868911962524713,20,2.132147,2.481623,0.36949
